Log Mode	Log Freq	Timestamp	AccX	AccY	AccZ	GyroX	GyroY	GyroZ	MagnX	MagnY	MagnZ	qw	qi	qj	qk
5	100	1555487493	490.379	308.172	863.028	-40.73171	30.97561	45.85366	-642	-90	-83	0.1824825	0.3755608	0.1396832	0.8978546
5	100	1555487493	32.513	230.153	1015.406	23.90244	25.60976	40.73171	-177	-185	-321	0.9104997	0.09903257	0.03738517	0.3997314
5	100	1555487493	36.539	256.2	1012.051	-21.46342	3.780488	11.21951	-179	-185	-325	0.8810608	0.1126133	0.04239021	0.4574419
5	100	1555487493	65.331	241.194	1013.454	-30.2439	11.21951	6.341464	-180	-185	-325	0.8776292	0.1128269	0.0426954	0.4639119
5	100	1555487493	19.337	250.649	1004.121	-35.73171	12.92683	0.9756098	-178	-182	-328	0.8764619	0.1118198	0.04272591	0.4663534
5	100	1555487493	-12.322	250.039	993.995	-39.7561	12.56098	2.195122	-180	-180	-329	0.8758946	0.1105686	0.04260384	0.4677267
5	100	1555487493	-41.053	230.824	989.664	-41.34146	6.341464	3.414634	-178	-177	-332	0.8755633	0.1093783	0.04208503	0.4686728
5	100	1555487493	-111.142	226.188	945.927	-42.07317	-1.707317	7.073171	-177	-176	-335	0.875271	0.1087069	0.04104739	0.4694662
5	100	1555487493	-158.722	221.674	978.196	-36.70732	3.536585	17.31707	-179	-173	-337	0.8747651	0.1082797	0.04037599	0.4705649
5	100	1555487493	-35.38	217.038	989.908	-34.87805	-2.682927	18.17073	-180	-169	-340	0.8741655	0.1082797	0.03982665	0.4717246
5	100	1555487493	21.045	227.835	1036.451	-28.78049	0.8536586	16.95122	-180	-168	-342	0.8737713	0.1084017	0.03946043	0.4724571
5	100	1555487493	26.535	233.996	1061.644	-22.56098	0.2439024	15.60976	-182	-168	-344	0.8734091	0.10889	0.03955198	0.4730063
5	100	1555487493	56.669	234.911	1044.015	-21.46342	-7.926829	11.82927	-182	-165	-344	0.8732291	0.1097445	0.03933835	0.4731589
5	100	1555487493	38.491	233.935	1054.08	-19.26829	-13.29268	9.756098	-183	-163	-345	0.8731979	0.110538	0.0389111	0.4730674
5	100	1555487715	52.399	215.513	1011.929	-18.41463	-17.19512	5.609756	-185	-163	-347	0.8733208	0.1114841	0.03827021	0.4726707
5	100	1555487715	57.645	224.175	1015.162	-12.68293	-19.5122	4.146341	-186	-161	-349	0.8734387	0.1125217	0.03781243	0.4722434
5	100	1555487715	37.759	232.349	1046.76	-10.73171	-32.92683	-1.219512	-187	-162	-350	0.8736575	0.1138951	0.03701895	0.471572
5	100	1555487715	17.324	203.618	1053.409	-12.31707	-42.31707	-2.195122	-191	-161	-352	0.8740399	0.1152074	0.03555406	0.4706565
5	100	1555487715	-68.869	196.298	1071.221	-10.60976	-39.39024	6.341464	-193	-160	-351	0.8741105	0.1163976	0.03436385	0.4703208
5	100	1555487715	-102.602	176.046	1045.113	-2.439024	-35.97561	10.36585	-195	-159	-351	0.8738781	0.1174352	0.03381451	0.4705344
5	100	1555487715	-109.983	137.433	958.798	-13.04878	-23.17073	19.26829	-199	-159	-353	0.8734946	0.117954	0.03384503	0.4711142
5	100	1555487715	-12.749	172.447	977.586	-12.56098	-13.53659	22.68293	-204	-158	-353	0.8729432	0.1177099	0.0344554	0.4721518
5	100	1555487715	77.714	190.137	1012.6	-10	-3.04878	19.7561	-205	-158	-355	0.8725776	0.1170385	0.03552354	0.4729148
5	100	1555487715	142.862	215.818	979.172	-5.97561	0.1219512	11.70732	-206	-158	-354	0.8723925	0.1168249	0.03707999	0.4731895
5	100	1555487715	147.437	201.056	982.283	-4.756098	8.170732	10.36585	-206	-158	-354	0.8723875	0.116306	0.03878903	0.4731895
5	100	1555487715	94.245	207.278	965.569	-2.560976	-9.634147	6.463415	-207	-158	-355	0.8724666	0.1164281	0.03961303	0.4729453
5	100	1555487715	82.96	215.94	993.263	2.804878	-25.2439	2.073171	-208	-158	-354	0.8727229	0.1173437	0.03927733	0.472274
5	100	1555487715	31.476	249.612	874.557	10	-38.90244	11.58537	-211	-159	-354	0.8727648	0.1189917	0.03851436	0.4718467
5	100	1555487715	-26.779	995.459	142.923	-46.46342	-18.41463	56.21951	-215	-159	-354	0.8722	0.11948	0.03665273	0.4729148
5	100	1555487715	288.652	216.123	1115.202	-251.5854	65.73171	0.2439024	-216	-150	-364	0.8731068	0.1010773	0.03357036	0.4757531
5	100	1555487715	105.591	81.13	1101.172	-74.63415	-46.82927	20.2439	-213	-135	-375	0.8734976	0.09643849	0.03088473	0.4761803
5	100	1555487715	203.679	133.041	909.51	-73.29269	-38.53659	10.12195	-217	-130	-377	0.8737363	0.09897153	0.02822962	0.4753869
5	100	1555487715	131.333	90.951	1121.79	-96.34147	-30.36585	-3.902439	-220	-123	-384	0.8744746	0.09823908	0.02688681	0.4742576
5	100	1555487715	89.121	38.979	1136.491	-74.63415	-58.65854	-9.146341	-221	-118	-389	0.8753928	0.09887998	0.02465896	0.4725486
5	100	1555487715	66.917	58.804	1089.704	-55	-58.04878	-8.414635	-226	-113	-392	0.8759696	0.1013825	0.02316355	0.4710227
5	100	1555487715	2.684	68.808	1154.181	-62.56098	-58.90244	-20.85366	-228	-109	-395	0.8766176	0.1031831	0.02227851	0.4694663
5	100	1555487715	-139.69	25.864	1425.265	-49.39024	-68.41463	-19.5122	-232	-104	-398	0.8774079	0.1050142	0.02108829	0.4676351
5	100	1555487715	-372.466	41.236	1755.641	1.219512	-56.09756	4.634147	-238	-103	-399	0.8770317	0.108768	0.0217597	0.467452
5	100	1555487715	-103.761	-54.29	1520.425	24.14634	-72.56097	-10.60976	-241	-103	-399	0.8763592	0.1141087	0.0234077	0.4673605
5	100	1555487715	276.391	75.335	1039.074	69.63415	-89.14635	-33.41463	-248	-106	-399	0.8764061	0.1211585	0.02450636	0.4654378
5	100	1555487715	92.171	333.67	723.521	77.56097	-51.46342	-25.73171	-253	-111	-393	0.8762565	0.1278115	0.02768029	0.4637593
5	100	1555487715	23.485	292.983	710.345	20.36585	-18.65854	-26.09756	-255	-117	-389	0.8762239	0.1292764	0.03137303	0.4631794
5	100	1555487715	11.773	311.588	1011.075	-23.90244	-30.73171	-37.07317	-256	-116	-387	0.8769543	0.1263772	0.03265481	0.4625081
5	100	1555487715	74.481	176.534	1241.594	9.02439	-24.39024	-52.68293	-256	-117	-388	0.8780535	0.124424	0.03305154	0.460921
5	100	1555487715	-212.097	309.88	1158.634	226.0976	-188.7805	-55.2439	-258	-124	-381	0.8778422	0.1384625	0.03451644	0.4571978
5	100	1555487715	-111.569	432.49	782.081	95.12196	-129.7561	-52.19512	-268	-140	-368	0.8775471	0.1493271	0.03167821	0.4545427
5	100	1555487715	-185.257	315.37	1452.959	93.29269	-62.80488	-33.90244	-275	-145	-363	0.8776329	0.1490829	0.03219702	0.4544205
5	100	1555487715	-106.994	322.751	1169.37	271.2195	-20.97561	-22.31707	-277	-158	-353	0.8754917	0.1564989	0.0393994	0.4554887
5	100	1555487715	-53.314	446.398	303.231	215	81.46342	-36.58537	-279	-175	-335	0.8730357	0.1627247	0.05240028	0.4567095
5	100	1555487715	125.599	434.564	211.792	62.07317	174.1463	-76.09756	-269	-187	-326	0.8732433	0.1548204	0.06390576	0.4575945
5	100	1555487715	-216.428	623.054	922.015	-6.097561	157.3171	-98.29269	-254	-190	-323	0.8757038	0.1402325	0.07211524	0.4563738
5	100	1555487715	36.966	268.095	778.36	3.170732	171.8293	-70.48781	-239	-188	-323	0.8771721	0.1328471	0.07641835	0.4550615
5	100	1555487715	-363.499	474.702	1283.196	11.46342	255.122	-72.19512	-222	-187	-323	0.8767728	0.1320231	0.1026948	0.4508805
5	100	1555487715	-537.593	445.788	811.727	-20.97561	150.9756	-50.12195	-203	-185	-321	0.8685817	0.1148106	0.1637928	0.4533829
5	100	1555487715	-590.114	345.809	819.23	-56.58537	67.56097	-25.48781	-191	-183	-322	0.8573974	0.08810695	0.2181158	0.4577472
5	100	1555487715	-553.697	311.466	693.326	-82.43903	36.46342	-0.4878049	-185	-179	-327	0.8464481	0.06353953	0.2576678	0.461623
5	100	1555487715	-570.838	284.138	690.825	-77.31708	11.58537	32.56098	-185	-172	-331	0.83679	0.03970458	0.2830592	0.4669942
5	100	1555487715	-311.405	250.405	565.104	-105.6098	37.80488	50.97561	-184	-168	-336	0.8281637	0.03317362	0.3043306	0.4694968
5	100	1555487715	-222.894	200.751	801.418	-86.34147	85.12196	73.53659	-184	-160	-343	0.8276087	0.02883999	0.2945952	0.4769127
5	100	1555487715	-80.093	262.3	799.039	-67.19512	195	75.97561	-182	-156	-347	0.8333075	0.03851436	0.266213	0.4829554
5	100	1555487715	140.361	56.791	1165.893	-17.19512	283.0488	61.21951	-170	-152	-346	0.839785	0.04712058	0.2348399	0.487228
5	100	1555487715	-54.839	266.265	1010.343	-7.682927	241.0976	88.65854	-156	-151	-344	0.843808	0.05609302	0.2048097	0.4928434
5	100	1555487715	185.806	355.569	914.146	-45.2439	172.0732	34.02439	-143	-151	-341	0.8455466	0.07205421	0.1879025	0.494522
5	100	1555487715	54.351	208.559	1032.12	-72.31708	173.1707	3.780488	-136	-148	-342	0.8506788	0.0778222	0.1607105	0.4944304
5	100	1555487715	-94.428	115.717	874.13	-61.46342	157.0732	6.707317	-124	-141	-343	0.8539	0.06604205	0.1409039	0.4966277
5	100	1555487715	6.405	97.783	715.774	-74.14635	131.8293	2.682927	-113	-138	-343	0.8549734	0.0552385	0.1310465	0.4987945
5	100	1555487715	-0.305	94.245	791.841	-99.5122	137.1951	8.536586	-105	-131	-344	0.8566313	0.04779199	0.1156041	0.5005341
5	100	1555487715	-100.833	147.681	861.686	-108.2927	138.7805	13.17073	-95	-128	-349	0.8572049	0.03976562	0.1066317	0.5022431
5	100	1555487715	-96.441	108.397	785.314	-140.4878	138.5366	11.82927	-89	-118	-348	0.8562937	0.0298471	0.1082492	0.5041353
5	100	1555487715	-31.476	147.681	828.746	-162.561	162.0732	-16.21951	-77	-107	-353	0.8567504	0.02368236	0.1037934	0.5046235
5	100	1555487715	612.074	80.032	1211.948	-144.5122	144.2683	-92.80488	-64	-94	-357	0.8622462	0.03164769	0.07217628	0.5003204
5	100	1555487715	-277.367	-108.885	972.645	-130.1219	265.9756	-110.6098	-47	-80	-359	0.8659846	0.001556444	0.07803584	0.4939421
5	100	1555487715	-839.482	-356.728	1703.303	-18.53659	481.0976	47.92683	-21	-68	-349	0.8593255	-0.06109806	0.122074	0.4928739
5	100	1555487715	-280.295	-18.056	1423.008	155.9756	490.4878	100.122	9	-75	-325	0.8491119	-0.08252205	0.1572924	0.4974517
5	100	1555487715	-465.918	136.152	1119.228	116.5854	412.561	90.97561	35	-90	-295	0.8406935	-0.08108768	0.1974548	0.4976653
5	100	1555487715	-541.131	116.205	1283.135	110.122	329.3903	75.73171	52	-98	-269	0.8332706	-0.08175909	0.2233955	0.4990692
5	100	1555487715	-526.247	210.267	1127.524	141.3415	290.4878	52.19512	65	-108	-247	0.8297365	-0.0733665	0.2390515	0.4990081
5	100	1555487715	-379.542	253.821	667.462	88.29269	283.9024	4.268293	76	-116	-223	0.825704	-0.0596942	0.2693259	0.4920499
5	100	1555487715	-409.31	161.711	858.941	41.46342	303.0488	-50.2439	90	-119	-201	0.8237816	-0.05612354	0.2883694	0.4848475
5	100	1555487715	-525.332	123.83	536.8	15.73171	332.439	-96.58537	107	-116	-181	0.8176284	-0.07046724	0.3163244	0.4758751
5	100	1555487715	-649.467	-7.32	274.622	-37.19512	364.3903	-149.6342	127	-107	-155	0.7952151	-0.1246071	0.3731803	0.4613482
5	100	1555487715	-846.131	-140.483	412.116	-76.46342	411.0976	-190.8537	148	-95	-134	0.7658295	-0.202826	0.4209418	0.4417859
5	100	1555487715	-1106.418	-155.123	537.044	-61.70732	434.7561	-208.6585	172	-78	-106	0.7469708	-0.2603839	0.4406873	0.4242988
5	100	1555487715	-1280.39	-212.28	563.579	-62.07317	401.8293	-192.9268	193	-60	-77	0.731527	-0.3013093	0.4586322	0.4046449
5	100	1555487715	-1212.741	-326.289	625.311	-75.60976	311.3415	-196.5854	210	-44	-50	0.7213851	-0.3368328	0.4631184	0.3894467
5	100	1555487715	-1176.995	-237.656	329.034	-91.70732	238.2927	-185.1219	223	-25	-29	0.7145912	-0.3606372	0.4688864	0.3734245
5	100	1555487715	-1273.131	-204.289	621.041	-65.36585	290.7317	-160.1219	233	-9	-12	0.7112075	-0.3744011	0.4748985	0.3584399
5	100	1555487715	-1034.804	-288.835	432.673	-33.78049	309.3903	-123.6585	242	3	14	0.7096746	-0.3802301	0.4830775	0.3441267
5	100	1555487715	-892.369	-442.738	-122.976	-70.97561	295.7317	-110	250	13	37	0.6816258	-0.4224983	0.5031282	0.3220924
5	100	1555487715	-752.496	-432.734	-259.738	-99.63415	300.4878	-119.2683	254	23	62	0.6428097	-0.4892422	0.5110325	0.2937407
5	100	1555487715	-930.433	-453.291	-336.964	-133.7805	334.2683	-131.0976	256	36	85	0.5841281	-0.5893735	0.4694357	0.301767
5	100	1555487715	-926.895	-425.353	-96.746	-135.4878	378.1707	-122.561	260	47	114	0.5542504	-0.6220893	0.4706259	0.2903836
5	100	1555487715	-934.337	-425.475	61.854	-111.3415	363.4146	-120.4878	259	56	144	0.5662448	-0.6047242	0.5023956	0.2475356
5	100	1555487715	-961.482	-351.482	-53.924	-125.4878	274.7561	-118.2927	258	65	171	0.5727047	-0.582873	0.5338908	0.2173223
5	100	1555487715	-837.591	-300.181	148.169	-117.8049	220.122	-105.8537	256	73	192	0.5992517	-0.5387433	0.5637685	0.1811579
5	100	1555487715	-703.94	-289.14	30.256	-101.4634	200.122	-100.122	254	79	205	0.6192113	-0.4989471	0.5870541	0.1516465
5	100	1555487715	-637.084	-315.431	31.354	-89.63415	212.1951	-115.9756	252	85	221	0.630946	-0.4723655	0.603412	0.121128
5	100	1555487715	-681.004	-367.098	-113.521	-72.68293	242.439	-110	249	91	241	0.6253131	-0.4681539	0.6159245	0.102237
5	100	1555487715	-732.61	-428.464	-269.803	-68.78049	294.5122	-98.17073	241	99	260	0.5951779	-0.5044404	0.6165655	0.105594
5	100	1555487715	-823.927	-516.975	-253.821	-45.85366	317.439	-79.5122	235	103	287	0.5736715	-0.5205237	0.6255379	0.09305093
5	100	1555487715	-1000.461	-604.205	-427.122	-41.34146	290.3659	-48.90244	222	108	308	0.5528872	-0.530015	0.6375927	0.0829188
5	100	1555487715	-933.3	-544.242	-345.565	-32.31707	342.561	-45.97561	212	110	334	0.5304092	-0.5452743	0.6452224	0.07092503
5	100	1555487715	-1627.663	-359.839	47.641	-12.92683	396.9512	35.73171	194	110	365	0.5036961	-0.5806452	0.6349682	0.07718132
5	100	1555487715	-553.026	-661.606	-578.646	58.53659	353.0488	-9.878049	174	110	393	0.4612762	-0.708121	0.5095065	0.1618396
5	100	1555487715	-914.024	-457.927	-711.687	17.92683	385.4878	3.780488	153	111	420	0.4172525	-0.7906736	0.3951232	0.2112186
5	100	1555487715	-550.891	-578.219	-508.679	13.90244	301.3415	22.80488	132	111	446	0.3827358	-0.8358409	0.3184301	0.2312693
5	100	1555487715	-325.435	-561.871	-638.548	-7.560976	196.0976	-48.04878	114	112	463	0.3767898	-0.8408154	0.3246864	0.2136296
5	100	1555487715	-806.054	-395.585	-515.938	-20.2439	117.8049	-24.5122	104	114	472	0.372296	-0.8450575	0.3261818	0.2021851
5	100	1555487715	-378.688	-460.611	-790.804	-37.43903	85.97561	-19.63415	96	111	477	0.3681738	-0.8479263	0.3274331	0.1955931
5	100	1555487715	-518.073	-427.122	-511.851	-20.97561	88.41463	-29.7561	91	111	481	0.3637353	-0.8512528	0.3276162	0.1890316
5	100	1555487715	-559.187	-401.563	-583.282	32.56098	83.17073	-28.04878	86	114	486	0.3631024	-0.8529008	0.3282266	0.1816157
5	100	1555487715	-623.054	-413.824	-606.523	52.68293	85.97561	-28.90244	80	116	491	0.3646367	-0.8535112	0.3295694	0.1730399
5	100	1555487716	-579.195	-423.157	-621.468	72.92683	55.73171	-30.97561	75	124	496	0.3683665	-0.8531449	0.3305154	0.1649525
5	100	1555487716	-373.381	-437.37	-837.286	46.09756	35	-37.68293	73	129	498	0.3722999	-0.8526872	0.3300882	0.1592456
5	100	1555487716	-283.345	-419.314	-721.935	31.34146	49.7561	-51.58537	71	133	504	0.3744451	-0.8533891	0.3285623	0.1535081
5	100	1555487716	-362.767	-386.984	-637.755	36.82927	47.43903	-63.04878	71	141	506	0.3766422	-0.8545183	0.3261208	0.1469161
5	100	1555487716	-473.299	-380.823	-581.879	35.85366	30.36585	-62.68293	68	146	507	0.3792717	-0.8554949	0.3230995	0.141026
5	100	1555487716	-434.381	-442.982	-691.435	47.43903	17.92683	-57.19512	68	152	509	0.3828286	-0.8559221	0.3197729	0.1363262
5	100	1555487716	-349.835	-516.426	-848.205	44.87805	28.41463	-52.43903	65	152	509	0.3865578	-0.8560137	0.3170873	0.1314127
5	100	1555487716	-354.837	-544.974	-867.298	25.85366	47.31707	-58.29268	66	158	509	0.3888777	-0.8567767	0.3144932	0.1257057
5	100	1555487716	-350.567	-562.237	-671.549	30.48781	57.31707	-71.82927	63	164	511	0.3900297	-0.8583025	0.311655	0.1185949
5	100	1555487716	-308.965	-567.971	-681.431	44.87805	38.17073	-85.97561	60	171	513	0.3928252	-0.8593707	0.3077792	0.1115452
5	100	1555487716	-358.314	-628.544	-796.904	29.87805	52.92683	-85.73171	58	175	516	0.3955524	-0.860683	0.3031098	0.1043428
5	100	1555487716	-643.733	-454.999	-796.233	-6.829268	63.90244	-68.78049	54	181	517	0.395759	-0.863155	0.298471	0.09619434
5	100	1555487716	-395.89	-585.234	-473.909	2.682927	52.07317	-70.85366	50	191	522	0.3943156	-0.8655049	0.2956328	0.08954131
5	100	1555487716	-417.545	-559.553	-667.95	15	14.39024	-97.31708	46	191	523	0.3955836	-0.8673971	0.2899869	0.0839259
5	100	1555487716	-658.495	-530.029	-565.043	-19.39024	-18.53659	-93.04878	44	197	525	0.3961078	-0.8700827	0.28193	0.08105716
5	100	1555487716	-563.884	-508.984	-507.764	18.65854	-42.07317	-77.68293	44	202	525	0.3976344	-0.8719138	0.2741478	0.08059938
5	100	1555487716	-661.667	-388.631	-1122.278	4.390244	-40.2439	11.46342	45	205	524	0.4010241	-0.871395	0.2702414	0.08258308
5	100	1555487716	-182.39	-391.315	-987.895	-118.0488	89.5122	-16.95122	52	210	522	0.3949354	-0.8742943	0.2701499	0.08157597
5	100	1555487716	-233.569	-817.583	-249.002	-93.53659	121.4634	-4.268293	50	206	522	0.3829647	-0.8790857	0.2735374	0.07565539
5	100	1555487716	-352.336	-659.532	-164.273	32.56098	83.29269	-34.14634	41	197	527	0.3796898	-0.8807947	0.2746971	0.06765953
5	100	1555487716	-318.603	-444.934	-609.024	94.87805	49.63415	-31.21951	33	194	533	0.3847424	-0.8792382	0.274453	0.05990783
5	100	1555487716	-377.529	-342.454	-869.494	15	62.92683	-20.12195	27	200	537	0.388721	-0.8778344	0.274575	0.05395672
5	100	1555487716	-279.319	-483.852	-659.471	-324.0244	147.8049	-32.92683	24	207	540	0.3603886	-0.8899503	0.2750328	0.04965362
5	100	1555487716	-192.272	-946.537	-451.4	-330.3659	182.9268	-21.70732	12	187	546	0.3304946	-0.9009064	0.277871	0.04391614
5	100	1555487716	-735.416	-618.906	-575.474	-366.9512	188.7805	-12.56098	0	161	554	0.2964408	-0.9123814	0.2796716	0.03830073
5	100	1555487716	-132.065	-837.103	-455.548	-211.5854	126.8293	-57.56098	-17	132	557	0.2717813	-0.9199499	0.2806787	0.03234962
5	100	1555487716	686	-1716.723	-969.473	-173.7805	96.46342	52.80488	-33	108	562	0.2567966	-0.9236732	0.2830287	0.02789392
5	100	1555487716	-1274.656	-242.658	-911.523	-145.4878	146.5854	138.0488	-41	93	562	0.2428166	-0.9246498	0.2926725	0.02014222
5	100	1555487716	-332.511	-482.571	-719.19	-99.87805	104.0244	101.0976	-55	80	564	0.2310639	-0.9243751	0.3031098	0.01626637
5	100	1555487716	282.613	-205.814	-855.342	-51.34146	46.46342	71.58537	-67	68	565	0.2233536	-0.9239174	0.3103122	0.014008
5	100	1555487716	-234.24	-197.701	-1326.811	-57.80488	34.5122	24.14634	-76	59	567	0.2178777	-0.924253	0.313242	0.01284829
5	100	1555487716	-272.548	-172.813	-869.372	-40.2439	28.41463	24.5122	-80	53	565	0.2132535	-0.9247413	0.3150121	0.01199377
5	100	1555487716	-123.403	-182.207	-903.959	-44.39024	21.34146	-0.9756098	-83	49	567	0.2088982	-0.9256264	0.3153478	0.011536
5	100	1555487716	-14.823	-53.497	-937.57	-62.80488	45.73171	41.95122	-86	45	568	0.2039986	-0.9258095	0.3180334	0.01077303
5	100	1555487716	-126.209	112.85	-944.097	-83.78049	63.29268	71.58537	-89	39	564	0.1963475	-0.9253823	0.3240761	0.009491256
5	100	1555487716	-185.318	232.654	-1038.769	-166.8293	148.1707	167.3171	-94	34	564	0.1831307	-0.9236122	0.3366802	0.007080294
5	100	1555487716	-497.699	328.912	-301.523	-247.9268	213.2927	308.9024	-105	20	565	0.1611315	-0.9196753	0.3580737	0.004150517
5	100	1555487716	244.488	-608.414	-966.24	-263.1707	180.4878	168.9025	-125	0	561	0.1338492	-0.9145176	0.381756	0.00204474
5	100	1555487716	367.464	-834.175	-1113.433	-282.0732	128.7805	-148.5366	-152	-29	555	0.1055636	-0.9189734	0.3799249	-0.001129185
5	100	1555487716	-894.016	376.065	-1263.493	-76.82927	0	108.4146	-166	-52	548	0.1001456	-0.9211097	0.3762017	-0.0003967406
5	100	1555487716	258.335	-124.867	-1422.032	-93.41463	9.756098	85.2439	-165	-58	543	0.09387486	-0.9184241	0.3842891	0.002594074
5	100	1555487716	-19.947	-149.084	-1033.035	-24.39024	54.63415	62.92683	-170	-66	540	0.08767572	-0.9165929	0.3900876	0.00143437
5	100	1555487716	323.727	147.986	-1274.229	-124.5122	91.34147	106.5854	-176	-72	537	0.07971855	-0.9140904	0.3975951	-0.001342814
5	100	1555487716	66.246	-88.45	-813.496	-147.8049	42.07317	61.46342	-185	-78	535	0.06528742	-0.9119236	0.4051332	-3.051851E-05
5	100	1555487716	-135.603	-167.75	-828.99	-197.439	-36.46342	48.41463	-195	-90	526	0.05053534	-0.911069	0.4090701	0.007812738
5	100	1555487716	-228.811	758.047	-233.752	-48.41463	5.609756	136.4634	-198	-103	519	0.03825069	-0.9093296	0.4140141	0.01577807
5	100	1555487716	170.251	277.245	-991.494	-198.0488	-25.73171	1.585366	-198	-118	509	0.02779667	-0.9083834	0.4166082	0.02246162
5	100	1555487716	1.281	-0.183	-493.978	46.09756	-13.78049	25.85366	-202	-128	501	0.02770324	-0.9082308	0.4168828	0.02362133
5	100	1555487716	-76.067	73.2	-285.785	11.58537	-9.268293	48.29268	-203	-132	501	0.02966585	-0.9070712	0.4191718	0.02523881
5	100	1555487716	-618.357	616.405	-1381.772	-46.70732	2.439024	29.14634	-201	-129	500	0.02912036	-0.9057894	0.4218879	0.02661214
5	100	1555487716	-179.95	101.199	-947.208	-33.04878	-23.04878	37.80488	-202	-130	501	0.02809845	-0.904294	0.4250923	0.02755821
5	100	1555487716	102.724	151.707	-922.198	0.1219512	-40.2439	35	-204	-132	500	0.02867795	-0.9031953	0.4272591	0.02941984
5	100	1555487716	-94.184	65.575	-1089.887	19.63415	-43.29268	19.02439	-204	-132	500	0.03251748	-0.9023103	0.428663	0.03204444
5	100	1555487716	-453.413	568.093	-1105.93	4.878049	-52.31707	1.463415	-202	-131	501	0.03589033	-0.9016999	0.4293344	0.03634755
5	100	1555487716	369.721	-77.104	619.76	35.97561	-16.82927	9.756098	-199	-128	501	0.03755007	-0.9010285	0.4305246	0.03723258
5	100	1555487716	239.242	-140.666	487.512	-32.68293	19.26829	27.07317	-197	-127	502	0.03627933	-0.9003266	0.4319895	0.03848384
5	100	1555487716	47.519	-738.649	579.5	41.82927	-3.170732	-36.82927	-198	-127	500	0.03808281	-0.900235	0.4319895	0.03888058
5	100	1555487716	-338.733	20.984	756.888	-10	30.60976	-5.97561	-196	-125	501	0.0365812	-0.9003571	0.4317759	0.03985718
5	100	1555487716	-589.809	761.463	-673.074	-47.92683	12.19512	10.73171	-197	-128	501	0.03685715	-0.9008148	0.4306467	0.04144414
5	100	1555487716	244.244	575.047	-1332.362	-60.12195	12.43902	57.56098	-194	-129	499	0.03667883	-0.8997467	0.4326914	0.04345836
5	100	1555487716	-814.106	569.374	-651.663	-17.43902	32.56098	-64.7561	-195	-129	499	0.03746903	-0.9048128	0.422071	0.04202399
5	100	1555487716	-500.383	-1053.592	928.786	8.658537	-43.53659	301.2195	-189	-126	500	0.03705472	-0.9016389	0.4287851	0.04263436
5	100	1555487716	-76.86	110.776	-380.762	-4.512195	7.804878	-13.04878	-189	-126	499	0.0337868	-0.9002045	0.4319895	0.04330577
5	100	1555487716	-355.142	389.912	-841.007	-7.439024	5.487805	41.95122	-195	-133	497	0.03155087	-0.8989227	0.4347972	0.0435194
5	100	1555487716	-429.257	404.552	-1082.079	-46.95122	26.70732	63.04878	-197	-135	497	0.02996174	-0.8974884	0.4379101	0.0430311
5	100	1555487716	333.609	314.089	-921.466	-38.41463	30.97561	11.82927	-201	-136	496	0.02492627	-0.8967254	0.4398938	0.04190191
5	100	1555487716	-156.099	-149.45	-951.783	-66.95122	62.92683	52.07317	-204	-138	493	0.01846452	-0.8947417	0.4443495	0.04062014
5	100	1555487716	-30.378	425.536	-943.853	-110.2439	94.63415	61.70732	-211	-142	491	0.008086179	-0.8927885	0.4487747	0.03827021
5	100	1555487716	324.032	119.377	-1349.442	-18.65854	16.46342	36.70732	-221	-151	486	0.005792876	-0.8904996	0.4534135	0.03732414
5	100	1555487716	-107.238	182.573	-1570.323	-29.7561	11.21951	13.78049	-227	-155	483	0.007739681	-0.889645	0.4550615	0.03729362
5	100	1555487716	-64.111	55.388	-780.129	-14.26829	24.26829	1.097561	-229	-154	477	0.007673942	-0.8893704	0.4556414	0.0367748
5	100	1555487716	86.681	103.7	-1056.52	2.073171	-3.04878	-17.92683	-229	-155	484	0.006870726	-0.8896145	0.4552141	0.03631703
5	100	1555487716	106.262	206.485	-1095.743	-8.170732	19.39024	-26.95122	-229	-154	481	0.006113274	-0.8901944	0.4541765	0.03521836
5	100	1555487716	-82.35	49.166	-878.095	-9.268293	18.78049	2.926829	-229	-154	483	0.008576254	0.8908353	-0.4529252	-0.03460799
5	100	1555487716	12.078	198.86	-862.845	5	9.634147	0.8536586	-230	-154	483	0.006417695	0.8909879	-0.4527116	-0.03393658
5	100	1555487716	-39.772	231.007	-898.286	-0.1219512	-3.902439	-27.07317	-230	-154	483	0.008768694	0.8915677	-0.4515519	-0.0336314
5	100	1555487716	-17.08	201.788	-1074.271	-24.26829	8.658537	-16.21951	-228	-154	483	0.008347325	0.892056	-0.4506058	-0.0334788
5	100	1555487716	105.286	188.917	-890.661	8.170732	0.9756098	-10.60976	-227	-153	480	0.006309984	0.891995	-0.4507889	-0.03308206
5	100	1555487716	121.878	356.057	-868.274	-2.560976	11.34146	-21.09756	-229	-154	483	0.007473256	0.8929106	-0.4489883	-0.03262429
5	100	1555487716	-184.464	17.934	-654.835	-40.36586	24.5122	-19.7561	-227	-155	483	0.007180391	0.8938566	-0.4471267	-0.03234962
5	100	1555487716	-47.214	177.083	-1026.264	-23.90244	25	-4.634147	-227	-157	481	0.007959883	0.8938566	-0.4471572	-0.03173925
5	100	1555487716	109.007	70.577	-999.668	27.19512	-2.682927	-11.46342	-229	-156	479	0.009796095	0.8938261	-0.4472182	-0.03122044
5	100	1555487716	118.828	225.761	-868.762	3.536585	8.780488	-8.04878	-230	-158	480	0.00930621	0.8940703	-0.446791	-0.03048799
5	100	1555487716	-144.448	185.501	-1153.815	-7.926829	9.512196	-15	-228	-157	479	0.01015754	0.8942839	-0.4463942	-0.02975555
5	100	1555487716	39.345	124.989	-784.46	6.219512	0.3658537	-30.2439	-229	-157	473	0.008174155	0.8952299	-0.4445631	-0.02932829
5	100	1555487716	107.848	130.845	-842.898	-9.268293	9.146341	-12.80488	-229	-158	480	0.007850554	0.8955657	-0.4439223	-0.02887051
5	100	1555487716	7.015	234.972	-965.386	-5	12.43902	-19.02439	-230	-157	479	0.008614395	0.8963592	-0.4423353	-0.02838222
5	100	1555487716	-36.417	-154.757	-823.744	3.902439	11.70732	-49.63415	-228	-157	481	0.01075328	0.8977325	-0.4395581	-0.0273751
5	100	1555487716	240.645	22.509	-880.108	-1.95122	8.414635	-13.65854	-226	-156	480	0.009474418	0.8988311	-0.4373913	-0.02649007
5	100	1555487716	-74.542	201.3	-709.552	-2.560976	4.268293	1.219512	-225	-156	480	0.01479218	0.898648	-0.4373913	-0.03003021
5	100	1555487716	42.273	253.882	-779.763	3.658537	8.902439	-38.04878	-225	-154	481	0.01470326	0.8996245	-0.435438	-0.02920621
5	100	1555487716	-50.996	323.361	-960.445	1.097561	6.341464	-32.19512	-225	-156	482	0.01445593	0.9008453	-0.4329661	-0.02844325
5	100	1555487716	-65.27	335.195	-1419.226	-4.02439	14.26829	-39.14634	-223	-156	481	0.01355365	0.9022187	-0.4301584	-0.02795495
5	100	1555487716	109.19	294.386	-791.902	-9.512196	10.2439	-5.731708	-222	-155	481	0.01579762	0.9032563	-0.4279611	-0.02697836
5	100	1555487716	78.446	122.976	-793.671	4.390244	6.95122	-56.95122	-220	-156	482	0.01442497	0.9048738	-0.4246345	-0.02609333
5	100	1555487716	-107.848	391.132	-623.664	3.902439	8.04878	-20.60976	-219	-154	480	0.01577496	0.9065218	-0.4211249	-0.02496414
5	100	1555487716	32.879	171.288	-666.913	3.536585	5.365854	-34.14634	-217	-155	482	0.01463826	0.9076205	-0.418836	-0.0242317
5	100	1555487716	131.089	142.191	-969.473	3.536585	7.926829	-23.17073	-217	-154	481	0.01485451	0.9081088	-0.4177984	-0.02371288
5	100	1555487717	82.106	168.604	-966.728	0.2439024	7.926829	-17.56098	-217	-153	477	0.01558681	0.9086581	-0.4166082	-0.02313303
5	100	1555487717	91.134	168.604	-907.009	-0.1219512	7.804878	-22.56098	-216	-154	481	0.01503795	0.9096042	-0.414594	-0.02249214
5	100	1555487717	46.909	169.702	-959.164	3.536585	4.146341	-15.73171	-214	-151	483	0.01596463	0.9103366	-0.4129765	-0.02197333
5	100	1555487717	96.929	184.891	-836.432	-2.317073	8.536586	-26.21951	-216	-152	482	0.015665	0.9112522	-0.4109928	-0.02142399
5	100	1555487717	33.55	47.153	-937.753	1.097561	12.68293	-46.46342	-214	-153	484	0.01588603	0.9124424	-0.4083682	-0.02078311
5	100	1555487717	37.637	195.627	-828.868	8.04878	14.87805	-69.2683	-211	-152	483	0.0161613	0.9149449	-0.4027833	-0.01950133
5	100	1555487717	72.468	140.91	-914.085	-0.3658537	22.19512	-86.58537	-209	-152	484	0.01621836	0.9176	-0.3967711	-0.01788385
5	100	1555487717	46.97	74.664	-772.321	17.07317	17.07317	-109.6341	-206	-149	482	0.01463826	0.920896	-0.3892026	-0.01605274
5	100	1555487717	19.642	147.986	-866.688	17.80488	15.73171	-94.2683	-202	-148	486	0.01287249	0.9243141	-0.3811457	-0.0143437
5	100	1555487717	35.868	67.466	-851.011	12.92683	16.09756	-92.07317	-197	-147	486	0.01233816	0.9271829	-0.3741874	-0.01278726
5	100	1555487717	-76.006	432.673	-818.01	29.7561	3.658537	-65.60976	-192	-146	488	0.01269531	0.9301431	-0.366802	-0.01135289
5	100	1555487717	-75.945	239.669	-763.415	39.7561	-30.2439	4.756098	-190	-144	487	0.009477563	0.9305704	-0.3657949	-0.01196326
5	100	1555487717	69.662	330.803	-588.528	88.29269	-74.63415	32.68293	-187	-139	490	0.007084286	0.92996	-0.3673208	-0.01413007
5	100	1555487717	125.172	-2.562	-1217.133	138.1707	-71.95122	1.95122	-184	-134	494	0.01423782	-0.9292581	0.3687552	0.01721244
5	100	1555487717	-149.023	211.487	-1052.738	-55.4878	28.29268	15.36585	-178	-124	500	0.01424409	-0.9292581	0.3687857	0.01654103
5	100	1555487717	-16.104	100.589	-1150.155	-41.95122	49.39024	28.53659	-178	-126	499	0.01189293	-0.9284341	0.370983	0.0155034
5	100	1555487717	-46.543	208.315	-758.901	-31.09756	36.46342	45.97561	-181	-129	497	0.006431611	-0.9274575	0.3735466	0.01562548
5	100	1555487717	215.269	81.374	-803.431	0.4878049	7.317073	5.487805	-185	-135	493	0.007789578	-0.9268777	0.3749809	0.01504563
5	100	1555487717	85.461	175.07	-936.655	12.68293	5.609756	1.463415	-187	-135	494	0.009303007	-0.9268777	0.3749809	0.01416059
5	100	1555487717	107.421	119.499	-810.507	31.34146	-0.1219512	3.292683	-187	-132	495	0.008953672	-0.9267861	0.3752556	0.01306192
5	100	1555487717	85.034	72.468	-886.879	33.90244	-15.85366	4.634147	-188	-132	497	0.009889956	-0.9266945	0.3754387	0.01361126
5	100	1555487717	140.788	132.37	-976.61	29.26829	-20.4878	-20.97561	-186	-130	498	0.01436493	-0.9269692	0.3745842	0.01443525
5	100	1555487717	290.055	62.281	-968.924	-39.2683	6.463415	-93.41463	-186	-126	500	0.01285859	-0.929136	0.3692129	0.01492355
5	100	1555487717	-96.99	219.295	-588.894	-12.68293	18.17073	-32.56098	-180	-128	499	0.008920325	-0.9312113	0.3640858	0.01440474
5	100	1555487717	74.664	204.655	-1260.382	-25.36585	23.90244	-47.07317	-178	-131	497	0.008485423	-0.9325846	0.3605762	0.01409955
5	100	1555487717	113.704	102.785	-902.8	3.170732	10.36585	-61.46342	-176	-128	498	0.008358029	-0.9342631	0.3562426	0.013184
5	100	1555487717	94.001	246.257	-898.835	1.097561	-3.536585	-55.4878	-173	-130	496	0.007677825	-0.9360942	0.3514206	0.01312296
5	100	1555487717	-210.023	31.659	-764.147	-25	30.36585	-53.78049	-172	-130	497	0.01009574	-0.9379559	0.3463546	0.01324503
5	100	1555487717	-123.037	117.852	-898.408	-21.82927	18.78049	-40	-168	-128	497	0.007413196	-0.9393597	0.3426008	0.01315348
5	100	1555487717	-325.679	160.613	-1053.714	-5.609756	10.12195	-33.53659	-165	-127	496	0.008235903	-0.940672	0.3389691	0.01297037
5	100	1555487717	-56.608	133.163	-1037.183	-16.21951	20.73171	-27.43903	-163	-125	498	0.009577659	-0.941557	0.3364971	0.01217689
5	100	1555487717	-54.778	144.204	-962.519	-18.17073	19.87805	-17.43902	-163	-125	496	0.00805294	-0.942259	0.3346049	0.01107822
5	100	1555487717	46.055	181.109	-879.376	-12.80488	13.04878	-9.878049	-163	-127	496	0.005376639	-0.9426863	0.3334757	0.01037629
5	100	1555487717	-110.166	133.59	-1045.418	-25.48781	17.31707	7.317073	-162	-127	496	0.004689788	-0.9426863	0.3335063	0.009704886
5	100	1555487717	87.169	90.707	-888.343	-39.87805	29.5122	-11.46342	-163	-128	493	0.007234147	0.9425947	-0.3337504	-0.008575701
5	100	1555487717	-33.306	153.171	-938.363	-31.58537	23.90244	5.97561	-166	-130	493	0.009056268	0.9426863	-0.3334757	-0.007385479
5	100	1555487717	94.001	171.837	-761.219	-38.53659	26.34146	8.536586	-167	-134	491	0.01044112	0.9424421	-0.3341472	-0.006286813
5	100	1555487717	78.812	190.991	-905.85	13.41463	-12.80488	13.41463	-170	-136	490	0.01190796	0.9419233	-0.335551	-0.006653035
5	100	1555487717	59.231	177.571	-892.43	-3.536585	1.95122	1.219512	-170	-135	490	0.02337383	0.9433271	-0.3310038	-0.00491348
5	100	1555487717	62.159	183.366	-866.383	0.7317073	-1.463415	1.463415	-171	-136	492	0.04190551	0.9438764	-0.3275551	-0.006988739
5	100	1555487717	108.214	165.31	-746.701	26.70732	-24.39024	4.146341	-172	-135	491	0.04015649	0.9437239	-0.328196	-0.007751701
5	100	1555487717	94.001	240.767	-637.389	90.73171	-68.53659	-8.902439	-169	-134	493	0.03334732	0.9442121	-0.3274941	-0.009949034
5	100	1555487717	-45.811	117.364	-1196.393	89.7561	-87.80488	-24.5122	-166	-128	494	0.02103438	0.9451277	-0.325663	-0.01532029
5	100	1555487717	-30.5	112.118	-821.304	75.36585	-86.46342	21.34146	-155	-120	499	0.0117619	0.9449751	-0.3263039	-0.02023377
5	100	1555487717	-57.523	231.068	-1865.197	46.34146	-3.04878	-0.1219512	-149	-114	502	0.00756048	0.9449751	-0.3261513	-0.02429273
5	100	1555487717	-113.399	129.808	-1811.273	-18.04878	6.95122	13.78049	-145	-107	505	0.008012128	0.9450057	-0.3260292	-0.02459792
5	100	1555487717	17.751	84.729	-937.631	-6.707317	4.146341	9.390244	-144	-109	506	0.007747379	0.9446394	-0.3270974	-0.0245674
5	100	1555487717	-32.208	104.493	-1174.494	-77.56097	72.43903	0.8536586	-144	-110	505	0.008583201	0.9446394	-0.3272195	-0.0225837
5	100	1555487717	12.139	125.294	-865.468	-100	99.5122	-1.95122	-148	-113	503	0.01914909	0.9447615	-0.3267312	-0.01748711
5	100	1555487717	163.175	157.014	-676.917	-67.56097	67.56097	-10.97561	-155	-122	501	0.02841382	0.9448836	-0.3259072	-0.01312296
5	100	1555487717	34.221	212.158	-765.794	14.26829	-13.78049	-9.268293	-161	-127	496	0.02915104	0.9452803	-0.324717	-0.01242103
5	100	1555487717	34.038	155.672	-853.207	38.04878	-34.39024	-3.04878	-160	-127	496	0.02695737	0.9454939	-0.3242286	-0.01379437
5	100	1555487717	22.692	100.833	-808.677	74.39024	-83.41463	-1.341463	-159	-123	497	0.01992104	0.945555	-0.3243812	-0.01748711
5	100	1555487717	-149.694	164.639	-1005.28	76.58537	-83.65854	6.829268	-152	-119	500	0.01128342	0.9455245	-0.3245643	-0.02267525
5	100	1555487717	-152.927	33.001	2842	8.170732	-8.04878	20.36585	-146	-112	502	0.006809729	0.9450667	-0.3257851	-0.02581866
5	100	1555487717	-73.566	159.271	-885.659	-18.65854	13.65854	26.70732	-143	-108	505	0.008727814	0.9443037	-0.3279519	-0.0257271
5	100	1555487717	-4.758	105.713	-1099.22	-32.92683	30.2439	37.80488	-145	-110	505	0.009832534	0.9432661	-0.3309427	-0.02508621
5	100	1555487717	40.443	127.612	-843.508	-56.09756	51.34146	26.21951	-148	-112	503	0.01227034	0.9424421	-0.3333842	-0.02252266
5	100	1555487717	49.715	103.7	-621.529	3.414634	-6.585366	15	-151	-118	502	0.0152368	0.9418927	-0.3348796	-0.02148503
5	100	1555487717	53.314	59.414	-691.679	84.87805	-86.09756	1.341463	-154	-118	502	0.009841623	0.9416486	-0.335551	-0.02462844
5	100	1555487717	87.413	-2.684	-404.735	14.02439	-10.97561	-2.804878	-150	-112	502	0.006034769	0.9413739	-0.3362834	-0.02630696
5	100	1555487717	-87.535	184.22	-921.71	5.487805	2.439024	8.658537	-149	-111	502	0.007393068	0.9412214	-0.3366497	-0.02673421
5	100	1555487717	30.622	137.799	-909.632	-2.073171	1.097561	8.414635	-148	-111	503	0.005359985	0.9407941	-0.3378704	-0.02685629
5	100	1555487717	-6.527	98.393	-913.17	-3.04878	1.829268	1.463415	-148	-113	504	0.01917398	0.943083	-0.3311563	-0.02371288
5	100	1555487717	-74.847	61.549	-1229.699	-67.07317	67.07317	17.92683	-149	-112	504	0.02336746	0.9428388	-0.3316752	-0.02237007
5	100	1555487717	94.062	79.422	-905.179	-150.7317	141.9512	29.63415	-152	-114	503	0.03746505	0.9419538	-0.3332621	-0.0159917
5	100	1555487717	2.745	158.234	-351.055	-30.85366	26.09756	12.19512	-162	-126	497	0.04676615	0.9412824	-0.3341472	-0.01208533
5	100	1555487717	11.59	165.31	-822.524	56.46342	-50.4878	-4.146341	-169	-130	495	0.04329351	0.9413739	-0.3342997	-0.01358074
5	100	1555487717	-7.808	46.36	-611.708	53.04878	-55.60976	0.3658537	-166	-128	495	0.03913491	0.941435	-0.3345439	-0.01577807
5	100	1555487717	-133.834	58.255	-731.878	114.6341	-123.0488	32.68293	-161	-124	498	0.02818106	0.9410688	-0.336375	-0.02114933
5	100	1555487717	308.416	-82.289	-872.239	-57.68293	29.7561	15.97561	-157	-117	499	0.02261565	0.9402447	-0.338847	-0.02471999
5	100	1555487717	11.285	281.637	-938.485	-24.02439	3.170732	22.68293	-154	-115	503	0.02164056	0.9392682	-0.3415632	-0.02533036
5	100	1555487717	-2.501	106.445	-1120.692	-6.829268	-1.585366	18.78049	-154	-114	504	0.02168321	0.9385968	-0.3433943	-0.02542192
5	100	1555487717	-49.044	109.373	-1007.232	-5.731708	2.317073	24.5122	-155	-115	503	0.02113192	0.9379253	-0.3452559	-0.02545244
5	100	1555487717	-75.701	89.121	-920.612	-5.609756	-4.512195	40	-157	-116	503	0.02153287	0.9369183	-0.3479415	-0.02563555
5	100	1555487717	-75.152	101.565	-816.607	-1.463415	-4.878049	50.36586	-158	-118	501	0.02217383	0.9355449	-0.3515732	-0.02569658
5	100	1555487717	-29.89	108.946	-598.105	0.4878049	-8.780488	55.4878	-160	-117	504	0.02275752	0.9338359	-0.3560289	-0.02600177
5	100	1555487717	-26.718	97.966	-840.458	-5.853659	1.829268	52.19512	-161	-117	503	0.02263409	0.9321268	-0.3604541	-0.02645955
5	100	1555487717	-10.187	121.268	-831.857	0	-4.756098	50.85366	-166	-119	503	0.0226275	0.9306009	-0.3643605	-0.02667318
5	100	1555487717	64.843	121.268	-1393.667	-18.53659	8.902439	61.82927	-167	-121	502	0.02184615	0.9286477	-0.369274	-0.02780236
5	100	1555487717	-53.192	108.946	-801.54	0.4878049	-12.07317	77.07317	-171	-120	503	0.0210726	0.9262367	-0.3752556	-0.02871792
5	100	1555487717	-11.224	101.809	-1503.284	-19.14634	10.97561	70.2439	-174	-121	501	0.0211164	0.9238258	-0.3811151	-0.0291757
5	100	1555487717	-48.434	76.494	-1637.789	-14.63415	7.195122	74.2683	-175	-122	504	0.02160334	0.9212928	-0.3871273	-0.02975555
5	100	1555487717	11.956	116.876	-772.016	-8.658537	-15.12195	80.2439	-180	-123	502	0.02166946	0.9186071	-0.3933836	-0.0306711
5	100	1555487717	34.953	121.573	-964.715	-26.34146	-7.439024	84.5122	-182	-125	494	0.0223532	0.9156163	-0.4001282	-0.0323191
5	100	1555487717	-69.784	167.323	-1082.75	-42.07317	-10.48781	89.7561	-187	-127	501	0.0220701	0.9123814	-0.407239	-0.03506577
5	100	1555487717	-152.195	95.526	-987.59	-35.60976	-35	107.3171	-188	-128	501	0.02300629	0.908536	-0.4153569	-0.03888058
5	100	1555487717	-1.281	126.331	-681.309	-29.14634	-75	126.3415	-193	-131	499	0.02382842	0.9039583	-0.4246345	-0.04446547
5	100	1555487717	-93.818	117.547	-806.847	-29.5122	-80.85366	141.9512	-194	-135	496	0.02341969	0.8984344	-0.4353771	-0.0520951
5	100	1555487717	60.878	133.59	-766.038	-46.58537	-57.80488	138.9024	-195	-136	493	0.02463039	0.8926054	-0.4463637	-0.05838191
5	100	1555487717	62.708	128.283	-731.756	-46.46342	-77.43903	134.5122	-197	-139	492	0.0246582	0.8867153	-0.4569536	-0.06573687
5	100	1555487717	-83.387	133.529	-827.404	-48.78049	-92.07317	134.3902	-200	-143	488	0.0261732	0.8807947	-0.4669942	-0.0737022
5	100	1555487717	-107.848	141.032	-852.353	-35	-102.8049	144.8781	-202	-149	486	0.02576349	0.8742638	-0.4776757	-0.0826136
5	100	1555487717	-122.183	147.437	-888.282	-31.21951	-119.2683	158.2927	-204	-153	484	0.02456982	0.8669088	-0.4892727	-0.09207434
5	100	1555487717	-86.498	161.04	-844.667	-73.65854	-100.9756	157.8049	-205	-155	480	0.02603505	0.8590655	-0.5009003	-0.1021149
5	100	1555487717	-101.87	182.573	-949.404	-70.60976	-137.3171	161.8293	-207	-159	475	0.02643041	0.850673	-0.5124668	-0.1141697
5	100	1555487717	-159.088	18.178	-953.247	-62.07317	-130.2439	164.3902	-207	-165	469	0.0268832	0.8414564	-0.524369	-0.1275368
5	100	1555487717	-447.313	0	-1094.279	-81.58537	-67.43903	201.7073	-209	-171	467	0.0287506	0.8322703	-0.5365459	-0.1364482
5	100	1555487718	-368.562	199.531	-1186.877	-168.2927	-29.7561	195.6098	-215	-175	457	0.03790947	0.8221686	-0.549089	-0.1452681
5	100	1555487718	-301.462	245.708	-1240.862	-255.6098	94.2683	217.439	-225	-186	453	0.05737876	0.8119755	-0.5607776	-0.1514328
5	100	1555487718	-226.31	344.162	-1323.029	-407.439	282.561	224.0244	-242	-200	433	0.08771446	0.7795648	-0.6000854	-0.1564684
5	100	1555487718	-145.058	189.832	-903.471	-509.8781	400.6098	236.8293	-270	-225	406	0.133223	0.7321391	-0.6479995	-0.1622364
5	100	1555487718	573.339	-103.883	-1335.717	-117.561	-138.0488	137.8049	-307	-249	365	0.1438513	0.6881313	-0.6879482	-0.1803034
5	100	1555487718	1447.896	1142.896	-1861.903	-157.561	-166.8293	214.6342	-316	-256	353	0.1504576	0.6608173	-0.7090976	-0.194586
5	100	1555487718	-113.643	651.968	-1101.599	-220.122	-164.2683	169.1463	-330	-262	342	0.1599427	0.6436659	-0.7177038	-0.2121647
5	100	1555487718	216.245	697.779	-1141.432	-245.7317	-162.0732	179.0244	-338	-269	327	0.1669135	0.6260872	-0.7246315	-0.2346568
5	100	1555487718	163.907	309.453	61.549	-330.6098	-135	41.09756	-345	-275	307	0.1778046	0.6103396	-0.7262795	-0.2615131
5	100	1555487718	647.393	706.502	-229.665	-450.3659	-96.46342	-20.97561	-349	-287	282	0.1959897	0.5984374	-0.7194738	-0.2929472
5	100	1555487718	44.774	1067.622	-377.59	-378.9024	-180.4878	-22.19512	-347	-301	246	0.2079438	0.5902585	-0.7092196	-0.3245949
5	100	1555487718	22.448	-7.564	-823.439	-403.6585	-33.04878	-23.53659	-342	-311	214	0.2193654	0.5815913	-0.6975921	-0.3563647
5	100	1555487718	-19.825	717.726	-543.266	-451.9512	-48.04878	18.53659	-337	-321	180	0.2406315	0.5717948	-0.6848964	-0.3821833
5	100	1555487718	2.501	706.136	-686.494	-519.1464	14.87805	-61.95122	-339	-326	140	0.261894	0.5619373	-0.6674703	-0.4124576
5	100	1555487718	152.378	644.16	-338.977	-539.1464	152.1951	-123.9024	-334	-331	94	0.2905073	0.5590991	-0.6397595	-0.440138
5	100	1555487718	-24.4	296.521	-284.809	-473.0488	183.5366	-104.1463	-325	-332	44	0.3193107	0.5594043	-0.6092105	-0.4625691
5	100	1555487718	-274.927	792.024	-376.37	-586.2195	191.4634	-118.7805	-313	-331	-3	0.3496559	0.5567797	-0.5770745	-0.4844813
5	100	1555487718	104.859	1097.512	-127.673	-468.6585	266.3415	-47.92683	-298	-322	-58	0.3835396	0.5537889	-0.5421308	-0.5023041
5	100	1555487718	-57.401	804.407	161.406	-515.1219	228.0488	-130.3659	-287	-309	-107	0.4150652	0.5510117	-0.5054781	-0.5182653
5	100	1555487718	-282.186	804.834	147.071	-510.8537	181.7073	-152.6829	-269	-294	-154	0.4405754	0.5486923	-0.4704123	-0.532487
5	100	1555487718	-221.247	734.318	-31.049	-474.2683	183.0488	-80.60976	-249	-273	-194	0.4641146	0.5439314	-0.437849	-0.5449995
5	100	1555487718	24.095	841.922	-1.098	-385.2439	176.7073	-58.65854	-235	-252	-228	0.4868265	0.5376751	-0.4055605	-0.5562609
5	100	1555487718	-145.302	926.346	450.302	-383.5366	137.3171	-91.70732	-216	-230	-261	0.5057818	0.5302286	-0.3733634	-0.5688955
5	100	1555487718	-213.378	854.549	297.741	-385.4878	125	-109.8781	-200	-205	-291	0.5218102	0.522477	-0.3418684	-0.5812556
5	100	1555487718	-243.085	537.288	197.274	-418.6585	140.1219	-140.7317	-183	-181	-317	0.5375987	0.5141758	-0.3103122	-0.5918759
5	100	1555487718	-295.911	930.006	564.128	-377.3171	135.4878	-101.7073	-165	-151	-342	0.5516521	0.5056917	-0.2760094	-0.6031373
5	100	1555487718	-244.976	326.35	413.641	-422.3171	170.7317	-112.6829	-148	-122	-362	0.5669068	0.4958342	-0.241554	-0.6118961
5	100	1555487718	-186.538	631.594	206.424	-525.7317	237.9268	-213.2927	-128	-89	-383	0.5828484	0.4863124	-0.198706	-0.6199225
5	100	1555487718	-599.996	316.102	205.509	-538.5366	248.4146	-140.1219	-100	-44	-401	0.5986295	0.4752648	-0.1481368	-0.6275521
5	100	1555487718	-202.337	363.987	-105.53	-410.4878	382.1951	-48.17073	-73	3	-415	0.6161461	0.4678793	-0.0992462	-0.625782
5	100	1555487718	-85.034	-692.045	800.686	-745.1219	310	-228.4146	-39	51	-422	0.6353611	0.4565874	-0.04010132	-0.6214789
5	100	1555487718	-2352	15.494	5733	-1372.805	817.6829	290.6098	-4	112	-421	0.6692778	0.4280221	0.04461806	-0.6057009
5	100	1555487718	-420.9	2352	-1029	-1864.024	1381.098	-88.29269	58	206	-389	0.7272316	0.3883786	0.2210761	-0.5209815
5	100	1555487718	-144.57	-617.503	-833	-495	-638.6586	-371.8293	158	332	-285	0.7476404	0.3218788	0.2794275	-0.5092624
5	100	1555487718	-678.32	-321.47	-98	-768.9025	-240.7317	-628.4147	136	396	-285	0.7458324	0.2404859	0.3095493	-0.5385907
5	100	1555487718	-1248.853	-1113.372	-245	-760.8537	330.9756	-604.2683	101	479	-260	0.7245452	0.1731925	0.3766899	-0.5505844
5	100	1555487718	-1897.954	-547.414	-490	-297.8049	256.2195	-525.2439	83	555	-195	0.6909045	0.1353191	0.4298227	-0.5653248
5	100	1555487718	-1812.798	-781.654	1606.008	115.2439	113.1707	-383.6585	57	592	-160	0.6632682	0.1234169	0.4443495	-0.589404
5	100	1555487718	-1263.493	-284.199	1135.942	360.8537	107.1951	-257.9268	33	607	-161	0.6405342	0.1314127	0.4388562	-0.6163213
5	100	1555487718	-380.396	-471.591	1528.172	607.6829	13.53659	-333.4146	15	606	-183	0.6153702	0.1523789	0.418836	-0.6501358
5	100	1555487718	70.089	-820.511	-1248.975	266.8293	165.8537	-539.7561	-7	593	-227	0.5817547	0.1612903	0.3966185	-0.6915494
5	100	1555487718	-229.238	-589.016	-90.707	23.78049	34.2683	-620.1219	-41	592	-248	0.5408771	0.1527757	0.4029054	-0.7223426
5	100	1555487718	-465.308	-303.658	12.627	-156.7073	69.14634	-628.9025	-77	602	-250	0.499963	0.1284524	0.4181951	-0.7474288
5	100	1555487718	76.616	-1123.498	277.001	-233.6585	88.04878	-695	-121	617	-240	0.4552465	0.09973449	0.4410535	-0.7669912
5	100	1555487718	-84.058	-1169.919	1675.06	-92.19512	-318.1707	-721.7073	-171	629	-221	0.4117461	0.0585345	0.4557939	-0.7869503
5	100	1555487718	48.373	-872.727	-931.653	-218.6585	-290	-741.8293	-236	630	-213	0.3769735	-0.003265481	0.4490494	-0.8100833
5	100	1555487718	-9.394	-1268.129	849.242	-300	-169.1463	-738.9025	-308	621	-195	0.3291131	-0.05191198	0.4659261	-0.8196967
5	100	1555487718	-410.164	-1039.257	1078.114	-130.4878	-399.3903	-714.0244	-372	611	-167	0.2882973	-0.1087985	0.4666891	-0.8290048
5	100	1555487718	-52.887	-179.035	-202.642	-230.3659	-402.3171	-634.7561	-443	586	-135	0.2545432	-0.1748405	0.4603412	-0.8323008
5	100	1555487718	-276.513	-412.909	-402.661	-440.4878	125.6098	-470.1219	-505	556	-103	0.2106434	-0.2013916	0.4693747	-0.8335215
5	100	1555487718	-821.67	363.194	598.044	47.31707	673.2927	-371.4634	-540	530	-94	0.1551636	-0.1843318	0.480697	-0.8431349
5	100	1555487718	-318.481	408.761	754.448	-73.04878	281.4634	-228.4146	-549	507	-134	0.1148178	-0.1626026	0.4825282	-0.8529618
5	100	1555487718	250.771	-136.518	50.935	-166.9512	64.5122	-205.122	-554	491	-147	0.09352912	-0.1633045	0.4904324	-0.8509171
5	100	1555487718	266.936	-110.166	-123.281	-111.9512	182.6829	-307.9268	-563	483	-141	0.06668213	-0.1666311	0.4981841	-0.8482925
5	100	1555487718	190.991	-212.158	275.598	70.60976	208.6585	-451.7073	-576	466	-143	0.02724767	-0.167272	0.4926908	-0.8535417
5	100	1555487718	127.002	-176.717	266.936	132.8049	-21.34146	-488.7805	-596	437	-157	0.01298773	0.1831721	-0.4782861	0.8587909
5	100	1555487718	-32.574	-63.257	-152.622	91.95123	-159.7561	-447.0732	-616	395	-157	0.04016911	0.211829	-0.4618061	0.8603778
5	100	1555487718	-77.531	-71.858	-500.871	-67.31708	-123.0488	-380.3659	-643	359	-147	0.06406075	0.2393872	-0.4541459	0.8557695
5	100	1555487718	42.639	-111.752	-425.231	-253.6585	-25.36585	-348.4146	-661	328	-131	0.09179882	0.2571795	-0.4601886	0.8447829
5	100	1555487718	161.162	-157.807	53.253	-331.2195	-29.26829	-366.8293	-674	307	-122	0.1242352	0.2701499	-0.4746544	0.8284249
5	100	1555487718	160.918	-141.154	290.055	-286.2195	-133.1707	-405.1219	-686	283	-108	0.1557039	0.289407	-0.4881436	0.8085269
5	100	1555487718	75.701	-76.86	191.784	-211.3415	-176.0976	-434.8781	-701	258	-91	0.1843394	0.3159276	-0.495407	0.7878963
5	100	1555487718	-33.306	-60.512	28.67	-220.9756	-136.0976	-423.9024	-712	224	-68	0.2125446	0.3422651	-0.5009003	0.7660146
5	100	1555487718	-104.615	-34.526	114.863	-213.1707	-51.58537	-390.1219	-720	188	-53	0.2422555	0.3613697	-0.5043794	0.7458724
5	100	1555487718	-68.32	-33.977	202.154	-166.7073	-41.70732	-355	-729	156	-44	0.2700814	0.3761406	-0.505356	0.7281411
5	100	1555487718	50.752	-87.047	116.693	-119.3902	-76.34147	-349.1464	-729	124	-36	0.29371	0.3921629	-0.5035554	0.7116001
5	100	1555487718	143.228	-120.17	-26.352	-122.3171	-101.9512	-373.2927	-729	94	-29	0.3158439	0.4108097	-0.5003204	0.6936552
5	100	1555487718	134.871	-125.294	-101.382	-163.1707	-116.4634	-397.1951	-728	61	-20	0.3394324	0.430372	-0.4976653	0.6722312
5	100	1555487718	49.227	-90.402	-33.123	-209.0244	-145.1219	-391.5854	-725	26	-10	0.3636919	0.4494766	-0.4973296	0.6468093
5	100	1555487718	17.812	-63.806	-1.403	-244.2683	-173.1707	-364.1464	-718	-8	0	0.3864728	0.4674825	-0.5001373	0.6180303
5	100	1555487718	40.382	-71.004	-3.538	-271.9512	-172.6829	-345.1219	-712	-39	10	0.407968	0.4832606	-0.5051119	0.5872677
5	100	1555487718	70.333	-94.123	22.265	-287.0732	-152.9268	-346.5854	-705	-68	15	0.4300092	0.4963835	-0.5101169	0.5554063
5	100	1555487718	61.183	-84.546	136.274	-270.7317	-150.3659	-356.0976	-693	-98	18	0.4520448	0.5085909	-0.5133519	0.5229347
5	100	1555487718	30.256	-59.658	144.143	-233.5366	-168.1707	-355.3659	-680	-127	16	0.4716949	0.5218665	-0.5145726	0.4902799
5	100	1555487718	6.893	-50.325	64.721	-209.0244	-176.8293	-342.439	-667	-156	22	0.488093	0.5358745	-0.5146336	0.4579913
5	100	1555487718	6.771	-60.634	-28.609	-214.3902	-166.8293	-328.1707	-649	-184	22	0.5030332	0.5486007	-0.5142063	0.4261299
5	100	1555487718	-963.434	-2450	-1207.129	3614.878	1736.22	354.5122	-665	-142	35	0.4689968	0.5514084	-0.5797907	0.3739433
5	100	1555487718	-328.363	-889.929	1372	2663.537	3932.195	345.8537	-742	38	-2	0.4514272	0.5145115	-0.3515732	0.6386608
5	100	1555487718	-2597	-694.851	-1195.905	-87.56097	3704.268	347.439	-645	8	-271	0.4858743	0.3026215	-0.2023377	0.7946104
5	100	1555487718	1960	876.143	96.746	-694.6342	2545.122	425.6098	-410	64	-463	0.5054778	0.05413984	-0.1038545	0.854854
5	100	1555487718	-599.203	-1636.203	881.206	-1502.073	1331.098	519.8781	-178	154	-498	0.4609306	-0.1364177	-0.167333	0.8607746
5	100	1555487718	-370.636	172.63	1677.683	-261.8293	1494.268	240.2439	-43	277	-459	0.4448499	-0.2783898	-0.1644643	0.8352001
5	100	1555487718	-39.65	243.024	1428.437	518.9025	985.3659	365.3659	80	298	-387	0.4454183	-0.3602405	-0.08694723	0.8150273
5	100	1555487718	-501.237	-543.876	1401.658	849.1464	126.7073	89.02439	155	247	-331	0.4476643	-0.3738212	-0.01590014	0.8121586
5	100	1555487718	479.094	-533.201	202.154	775.2439	-323.6585	158.9024	168	190	-319	0.4591154	-0.3270974	0.03650014	0.8251594
5	100	1555487718	919.697	516.975	-435.845	856.0976	-24.39024	-297.439	146	135	-337	0.4889302	-0.2831813	0.08661153	0.8205206
5	100	1555487718	358.253	-422.913	-338.001	542.439	-45.60976	-824.3903	139	105	-332	0.5479351	-0.258095	0.1152684	0.7873165
5	100	1555487718	274.866	-534.421	27.816	602.0732	-114.2683	-1114.512	153	115	-324	0.6305845	-0.2351146	0.128605	0.7283853
5	100	1555487718	-592.249	821.243	-533.994	254.6342	-524.0244	-792.1951	159	151	-327	0.7014049	-0.1967528	0.1202734	0.6744285
5	100	1555487718	-1616.195	-672.342	-1142.896	764.7561	-1594.146	-1264.024	134	180	-364	0.7810392	-0.09405804	0.06878872	0.6135136
5	100	1555487718	-959.469	-1371.158	-85.4	1750.976	83.41463	-128.1707	20	180	-445	0.8352077	0.01669363	0.01776177	0.5493942
5	100	1555487718	1733.437	524.783	-1899.479	536.5854	367.1951	71.21951	-33	111	-453	0.8209234	0.07016206	0.08764917	0.5598927
5	100	1555487718	-491.355	996.984	-1431.426	1124.634	-41.46342	-251.2195	-12	76	-434	0.8229136	0.07528916	0.1037629	0.5535142
5	100	1555487718	39.101	-113.338	1282.586	493.7805	-459.2683	-307.6829	-10	58	-429	0.8375164	0.09558398	0.0872219	0.5308695
5	100	1555487718	-481.351	-276.086	-1034.56	180	-23.78049	-3.04878	-41	54	-441	0.84238	0.1241493	0.0774865	0.5186316
5	100	1555487718	254.98	-435.113	-1278.133	-176.0976	303.9024	131.9512	-52	47	-441	0.8382837	0.1126133	0.08233893	0.5270851
5	100	1555487718	-58.377	-64.172	971.73	-284.8781	117.1951	130.3659	-33	58	-433	0.8314759	0.08743552	0.0963164	0.5401165
5	100	1555487718	471.896	-315.126	651.419	-0.3658537	-135	56.58537	-17	63	-431	0.8283977	0.08651997	0.08877835	0.5462508
5	100	1555487719	365.329	-169.458	-171.349	194.8781	-61.09756	8.902439	-29	59	-436	0.8276487	0.10477	0.08502457	0.5447859
5	100	1555487719	585.356	-604.693	1528.233	-116.5854	-60.12195	46.34146	-37	48	-434	0.8246431	0.1004975	0.08380383	0.5503098
5	100	1555487719	414.129	-395.707	1170.956	61.34146	-12.80488	-36.21951	-38	55	-434	0.8251649	0.09894101	0.0839259	0.5497909
5	100	1555487719	189.405	-79.361	1174.677	-36.21951	-9.390244	18.90244	-37	50	-435	0.8249421	0.1023591	0.0844142	0.5494247
5	100	1555487719	9.455	-270.291	1190.232	27.68293	-14.02439	21.21951	-40	49	-435	0.8237819	0.101413	0.08334605	0.5515
5	100	1555487719	88.694	-116.022	995.032	-14.87805	2.804878	3.414634	-39	49	-436	0.8236902	0.1023896	0.08386487	0.5513779
5	100	1555487719	66.368	-208.193	1000.4	3.04878	1.463415	-2.195122	-40	50	-435	0.8236203	0.1021149	0.08368175	0.551561
5	100	1555487719	72.163	-195.505	1003.572	-3.170732	1.707317	0.4878049	-38	48	-436	0.8236377	0.1021149	0.08371228	0.5515305
5	100	1555487719	68.503	-192.76	1024.8	-3.04878	1.95122	0.3658537	-40	49	-435	0.823658	0.1021149	0.08371227	0.5515
5	100	1555487719	69.113	-189.222	997.533	-2.926829	1.585366	0.3658537	-39	50	-434	0.8236549	0.1021149	0.08374279	0.5515
5	100	1555487719	65.941	-192.577	1019.798	-2.682927	1.341463	0.3658537	-41	49	-435	0.823658	0.1021149	0.08371227	0.5515
5	100	1555487719	69.845	-186.721	1001.803	-2.682927	1.707317	0.3658537	-40	48	-435	0.8236415	0.1020844	0.08371228	0.5515305
5	100	1555487719	71.004	-195.322	973.377	-2.560976	1.95122	0.6097561	-40	50	-433	0.8236415	0.1020844	0.08371228	0.5515305
5	100	1555487719	70.211	-190.32	992.592	-2.560976	1.707317	0.1219512	-40	48	-436	0.8236415	0.1020844	0.08371228	0.5515305
5	100	1555487719	71.614	-186.782	998.326	-2.439024	1.463415	0.2439024	-38	48	-435	0.8236452	0.1020539	0.08371227	0.5515305
5	100	1555487719	69.479	-191.418	998.387	-2.682927	1.829268	0.1219512	-38	50	-435	0.8236459	0.1020234	0.08374279	0.5515305
5	100	1555487719	72.895	-195.139	1001.559	-2.560976	1.829268	0.3658537	-38	50	-434	0.8236459	0.1020234	0.08374279	0.5515305
5	100	1555487719	70.882	-186.477	1022.055	-2.682927	1.829268	0.3658537	-39	49	-436	0.8236459	0.1020234	0.08374279	0.5515305
5	100	1555487719	71.736	-189.222	1017.907	-2.682927	1.707317	0.4878049	-39	49	-435	0.8236292	0.1019929	0.08374279	0.551561
5	100	1555487719	70.15	-193.492	1005.89	-2.439024	1.463415	0.3658537	-38	49	-435	0.8236292	0.1019929	0.08374279	0.551561
5	100	1555487719	54.473	-194.346	983.747	-2.682927	1.707317	0.2439024	-38	49	-435	0.823633	0.1019623	0.08374279	0.551561
5	100	1555487719	63.928	-190.015	1004.975	-2.317073	1.707317	0.2439024	-37	49	-436	0.823633	0.1019623	0.08374279	0.551561
5	100	1555487719	69.113	-191.418	991.189	-2.804878	1.829268	0.2439024	-38	49	-435	0.8236368	0.1019318	0.08374279	0.551561
5	100	1555487719	68.076	-188.734	994.788	-2.682927	1.707317	0.6097561	-39	48	-436	0.8236368	0.1019318	0.08374279	0.551561
5	100	1555487719	67.71	-185.318	997.411	-2.560976	1.707317	0.2439024	-37	50	-433	0.8236405	0.1019013	0.08374279	0.551561
5	100	1555487719	74.847	-189.222	1023.702	-2.682927	1.463415	0.2439024	-40	47	-434	0.8236405	0.1019013	0.08374279	0.551561
5	100	1555487719	69.296	-187.148	1008.696	-2.804878	1.707317	0	-39	48	-435	0.8236443	0.1018708	0.0837428	0.5515611
5	100	1555487719	70.272	-189.466	1002.474	-2.560976	1.585366	0.4878049	-40	49	-436	0.8236209	0.1018708	0.08377331	0.5515916
5	100	1555487719	70.76	-193.004	1006.073	-2.682927	1.829268	0.2439024	-40	48	-435	0.8236246	0.1018403	0.08377331	0.5515915
5	100	1555487719	69.906	-196.42	1002.474	-2.317073	1.707317	0.2439024	-39	48	-435	0.8249208	0.09378339	0.07538073	0.5522935
5	100	1555487719	59.414	-192.516	983.259	-2.560976	1.707317	0.4878049	-39	49	-436	0.8291484	0.05963317	0.03997925	0.5543993
5	100	1555487719	60.207	-188.185	1000.278	-2.560976	1.707317	0.1219512	-38	50	-434	0.8310131	0.03384503	0.01297037	0.5550706
5	100	1555487719	70.943	-191.967	977.891	-2.682927	1.463415	0.1219512	-40	49	-433	0.8316473	0.01373333	-0.00842311	0.5550707
5	100	1555487719	64.538	-191.174	992.714	-2.682927	1.707317	0.3658537	-38	49	-435	0.8316637	-0.001586962	-0.02453688	0.5547349
5	100	1555487719	66.856	-186.294	998.57	-2.682927	1.585366	0.4878049	-39	48	-436	0.8314057	-0.01348918	-0.03640858	0.5543077
5	100	1555487719	74.054	-188.551	1009.428	-2.560976	1.829268	0.6097561	-40	51	-434	0.8310469	-0.0225837	-0.0458388	0.5538499
5	100	1555487719	62.891	-191.723	1003.45	-2.804878	2.195122	0.1219512	-39	49	-433	0.8306651	-0.02963347	-0.05298012	0.5534531
5	100	1555487719	68.015	-187.026	1010.16	-2.926829	1.585366	0.2439024	-39	50	-435	0.8303118	-0.03460799	-0.05841243	0.553148
5	100	1555487719	68.991	-190.32	1013.332	-2.439024	1.829268	0.3658537	-39	49	-434	0.8300106	-0.0389111	-0.06271555	0.5528429
5	100	1555487719	61.488	-193.187	998.265	-2.804878	1.585366	0.3658537	-39	47	-435	0.8297862	-0.04214606	-0.06567584	0.5525987
5	100	1555487719	63.562	-191.967	1019.31	-2.804878	1.829268	0.1219512	-38	49	-436	0.8295653	-0.04464858	-0.06830043	0.5524155
5	100	1555487719	70.028	-185.684	996.252	-2.682927	1.341463	0.2439024	-40	50	-435	0.8294086	-0.04620503	-0.07013154	0.5522935
5	100	1555487719	77.226	-193.858	990.518	-2.560976	1.585366	0.4878049	-39	49	-434	0.8292351	-0.04788354	-0.07199316	0.5521714
5	100	1555487719	69.113	-191.235	993.446	-2.317073	1.463415	0.2439024	-39	48	-434	0.8291183	-0.0489822	-0.07351908	0.5520493
5	100	1555487719	68.93	-188.612	999.851	-2.682927	1.95122	0.2439024	-39	48	-435	0.8290683	-0.04977569	-0.07400738	0.5519883
5	100	1555487719	73.627	-188.795	1003.267	-2.682927	1.463415	0.2439024	-39	49	-435	0.8289825	-0.05017243	-0.07492295	0.5519578
5	100	1555487719	73.993	-185.135	1006.073	-2.804878	1.707317	0.2439024	-39	49	-435	0.8289232	-0.05063021	-0.07571642	0.5518968
5	100	1555487719	59.963	-188.734	1015.833	-2.439024	1.95122	0.2439024	-40	50	-436	0.8289282	-0.05114901	-0.0755333	0.5518662
5	100	1555487719	74.359	-189.588	1005.036	-2.560976	1.585366	0.6097561	-40	49	-437	0.828883	-0.05105747	-0.07586902	0.5518968
5	100	1555487719	67.283	-186.599	1001.376	-2.439024	1.707317	0.3658537	-39	49	-437	0.8288546	-0.05139317	-0.0761742	0.5518662
5	100	1555487719	67.222	-191.235	1006.988	-2.439024	1.707317	0.2439024	-38	49	-432	0.8288133	-0.05133213	-0.0766625	0.5518662
5	100	1555487719	72.224	-193.492	1003.572	-2.926829	1.585366	0.4878049	-39	48	-436	0.8288345	-0.05154576	-0.0765099	0.5518357
5	100	1555487719	66.063	-191.052	994.91	-2.926829	1.585366	0.3658537	-39	46	-435	0.8288298	-0.05148473	-0.07660146	0.5518357
5	100	1555487719	68.015	-188.978	997.96	-2.560976	1.707317	0.3658537	-41	48	-435	0.828817	-0.05188147	-0.07669301	0.5518052
5	100	1555487719	74.481	-183.854	993.995	-2.439024	1.585366	0.3658537	-39	48	-434	0.828809	-0.05172887	-0.0766625	0.5518357
5	100	1555487719	79.91	-190.015	1002.535	-2.682927	1.707317	0.1219512	-37	48	-434	0.8287807	-0.05163732	-0.07702872	0.5518357
5	100	1555487719	68.686	-189.466	996.862	-2.682927	1.95122	0.2439024	-39	49	-434	0.8287987	-0.05166784	-0.07681509	0.5518357
5	100	1555487719	67.649	-191.174	998.448	-2.560976	1.707317	0.1219512	-39	49	-434	0.8287897	-0.05182043	-0.07702872	0.5518052
5	100	1555487719	65.453	-187.331	1005.28	-2.439024	1.707317	0.3658537	-38	48	-436	0.8287951	-0.0520951	-0.07678458	0.5518053
5	100	1555487719	72.895	-189.588	1007.232	-2.439024	1.829268	0.2439024	-38	47	-436	0.8287821	-0.05194251	-0.07702873	0.5518053
5	100	1555487719	70.089	-193.065	1004.182	-2.804878	1.829268	0.4878049	-40	46	-433	0.8287247	-0.05185095	-0.07748649	0.5518357
5	100	1555487719	68.442	-189.527	1006.073	-2.682927	1.829268	0.2439024	-39	48	-435	0.828699	-0.05175939	-0.0778222	0.5518357
5	100	1555487719	67.466	-184.647	1008.818	-2.560976	1.707317	0.2439024	-38	49	-435	0.828755	-0.05182042	-0.0771813	0.5518357
5	100	1555487719	71.126	-185.562	1002.108	-2.560976	1.585366	0.2439024	-39	47	-434	0.8287588	-0.05175938	-0.0771813	0.5518357
5	100	1555487719	71.126	-180.56	1000.4	-2.682927	1.585366	0.3658537	-40	47	-434	0.8287844	-0.05166783	-0.07696767	0.5518357
5	100	1555487719	73.871	-188.246	1022.848	-2.804878	1.585366	0.2439024	-40	50	-437	0.8287803	-0.05154576	-0.07687613	0.5518662
5	100	1555487719	69.662	-189.466	998.631	-2.804878	1.707317	0.3658537	-40	48	-435	0.8288099	-0.05175939	-0.07663198	0.5518357
5	100	1555487719	71.736	-187.453	1006.866	-2.439024	1.829268	0.2439024	-40	49	-435	0.8287948	-0.05182043	-0.07675405	0.5518357
5	100	1555487719	67.71	-190.381	1014.918	-2.804878	1.707317	0.1219512	-38	48	-435	0.8287817	-0.05166784	-0.0769982	0.5518357
5	100	1555487719	67.527	-189.344	1024.434	-2.560976	1.95122	0.3658537	-38	48	-435	0.8287661	-0.05154576	-0.07702872	0.5518662
5	100	1555487719	65.514	-194.163	1000.705	-2.560976	2.073171	0.1219512	-40	48	-433	0.8287897	-0.05157628	-0.07675405	0.5518662
5	100	1555487719	68.503	-186.599	1008.879	-2.560976	1.585366	0.4878049	-40	48	-434	0.8287585	-0.05157628	-0.07708976	0.5518662
5	100	1555487719	71.37	-189.71	991.006	-2.926829	1.463415	0.3658537	-40	48	-433	0.8287196	-0.05151524	-0.07754754	0.5518662
5	100	1555487719	66.246	-184.83	995.337	-2.682927	1.707317	0.6097561	-40	49	-436	0.8287386	-0.05139317	-0.07742546	0.5518662
5	100	1555487719	67.771	-182.695	1011.441	-2.560976	1.707317	0.1219512	-39	49	-436	0.8287892	-0.05130161	-0.07672353	0.5518968
5	100	1555487719	72.346	-188.49	1004.365	-2.682927	1.707317	0.2439024	-40	51	-436	0.8288034	-0.05130161	-0.07657094	0.5518968
5	100	1555487719	65.697	-190.198	1009.733	-2.560976	1.707317	0.4878049	-40	49	-435	0.8287826	-0.05145421	-0.07669301	0.5518968
5	100	1555487719	65.88	-191.052	1014.43	-2.804878	1.463415	0.2439024	-39	49	-434	0.8287671	-0.05157628	-0.0769982	0.5518662
5	100	1555487719	69.845	-194.285	1010.282	-2.439024	1.585366	0.7317073	-39	48	-436	0.8287482	-0.05169836	-0.07712028	0.5518663
5	100	1555487719	65.636	-193.187	1009.672	-2.682927	1.585366	0.3658537	-39	48	-436	0.828749	-0.05182043	-0.07702872	0.5518662
5	100	1555487719	70.638	-182.085	1012.295	-2.804878	1.707317	0.2439024	-39	49	-435	0.8287943	-0.05172887	-0.07660146	0.5518662
5	100	1555487719	69.113	-187.209	998.204	-2.682927	1.707317	0.2439024	-39	50	-434	0.8287736	-0.05178991	-0.07678457	0.5518662
5	100	1555487719	75.03	-181.841	1003.694	-2.439024	1.707317	0.4878049	-39	50	-433	0.8287827	-0.05136265	-0.07675405	0.5518968
5	100	1555487719	78.324	-190.015	1023.641	-2.682927	1.707317	0.3658537	-40	49	-436	0.8287647	-0.05133213	-0.07696768	0.5518968
5	100	1555487719	70.699	-191.601	1006.927	-2.439024	1.585366	0.2439024	-39	50	-434	0.8287612	-0.05185095	-0.07687613	0.5518662
5	100	1555487719	62.342	-183.732	1033.645	-2.804878	1.585366	0.2439024	-39	48	-433	0.8287677	-0.05206458	-0.0766625	0.5518662
5	100	1555487719	70.455	-189.283	1021.811	-2.682927	1.829268	0.2439024	-40	49	-435	0.8287831	-0.05218665	-0.07663198	0.5518357
5	100	1555487719	69.479	-193.98	1013.881	-2.682927	1.341463	0.6097561	-38	49	-437	0.8287274	-0.05212561	-0.07727287	0.5518357
5	100	1555487719	62.647	-192.394	1017.114	-2.560976	1.463415	0.3658537	-37	48	-436	0.8286979	-0.05218665	-0.07754754	0.5518357
5	100	1555487719	71.126	-184.952	1009.184	-2.926829	1.707317	0.3658537	-39	48	-435	0.8287332	-0.05212562	-0.07721183	0.5518358
5	100	1555487719	79.727	-187.758	987.285	-2.804878	1.829268	0.3658537	-38	49	-435	0.8287171	-0.05206458	-0.07742546	0.5518357
5	100	1555487719	70.455	-186.477	995.52	-2.682927	1.585366	0.3658537	-40	48	-436	0.828721	-0.05191199	-0.0774865	0.5518358
5	100	1555487719	78.751	-184.342	1023.824	-2.560976	1.585366	0.3658537	-39	49	-434	0.828686	-0.05154576	-0.07766961	0.5518968
5	100	1555487719	76.067	-185.806	1008.818	-2.560976	1.585366	0.2439024	-40	49	-435	0.8287234	-0.05163732	-0.07742546	0.5518662
5	100	1555487719	64.965	-187.514	1021.933	-2.560976	1.829268	0.6097561	-39	49	-437	0.8287382	-0.05157628	-0.07708976	0.5518968
5	100	1555487719	80.032	-186.538	1010.099	-2.682927	1.829268	0.1219512	-38	49	-437	0.8287217	-0.05124058	-0.07727287	0.5519273
5	100	1555487719	70.455	-189.1	1013.271	-2.560976	1.585366	0.3658537	-40	47	-434	0.8287055	-0.0512711	-0.07742546	0.5519273
5	100	1555487719	63.989	-189.405	1010.221	-2.682927	2.073171	0.3658537	-39	47	-436	0.8287008	-0.05130161	-0.07745598	0.5519273
5	100	1555487719	68.686	-185.013	1005.036	-2.560976	1.829268	0	-40	50	-436	0.8287463	-0.05121006	-0.07702872	0.5519273
5	100	1555487719	65.331	-193.553	995.886	-2.560976	1.95122	0.7317073	-40	49	-436	0.8287396	-0.05145421	-0.07693716	0.5519273
5	100	1555487719	62.952	-189.649	996.374	-2.560976	1.585366	0.4878049	-38	48	-434	0.8287047	-0.0516068	-0.07721183	0.5519273
5	100	1555487719	67.954	-182.146	1004.609	-2.682927	1.707317	0.1219512	-40	48	-437	0.8287368	-0.05154577	-0.07690665	0.5519273
5	100	1555487719	83.509	-189.71	1016.382	-2.682927	1.829268	0.3658537	-38	50	-435	0.8286966	-0.0512711	-0.07730339	0.5519578
5	100	1555487719	70.028	-189.588	1004.487	-2.804878	1.585366	0.4878049	-39	48	-434	0.8287217	-0.0516068	-0.07702872	0.5519273
5	100	1555487719	60.573	-185.074	1017.175	-2.560976	1.829268	0.4878049	-39	48	-433	0.8287622	-0.05154576	-0.07663198	0.5519273
5	100	1555487719	74.542	-188.246	1020.591	-2.804878	1.829268	0.4878049	-38	49	-436	0.8287476	-0.0512711	-0.07675405	0.5519578
5	100	1555487719	67.039	-191.174	1013.637	-2.560976	1.829268	0.2439024	-39	48	-435	0.8287463	-0.05139317	-0.07690664	0.5519273
5	100	1555487719	63.501	-187.087	1010.648	-2.439024	1.829268	0.2439024	-41	47	-435	0.8287349	-0.05148473	-0.07696768	0.5519273
5	100	1555487719	60.695	-188.124	1006.5	-2.682927	1.829268	0.6097561	-38	48	-434	0.8287773	-0.05157629	-0.07644887	0.5519273
5	100	1555487719	73.017	-191.845	1001.681	-2.682927	1.707317	0.2439024	-39	50	-436	0.8287631	-0.05166784	-0.07654043	0.5519273
5	100	1555487719	62.037	-191.662	1005.341	-2.682927	2.073171	0.2439024	-39	48	-433	0.8287602	-0.05166783	-0.07657094	0.5519272
5	100	1555487719	73.139	-187.514	1008.086	-2.560976	1.95122	0.3658537	-39	48	-433	0.8287494	-0.0516068	-0.0765099	0.5519578
5	100	1555487720	68.991	-189.649	1007.049	-2.682927	1.707317	0.2439024	-39	49	-434	0.8287948	-0.05178991	-0.07611316	0.5519273
5	100	1555487720	71.614	-188.246	1009.062	-2.682927	1.707317	0.3658537	-40	47	-434	0.8287798	-0.05185095	-0.07623523	0.5519273
5	100	1555487720	64.782	-186.538	1016.748	-2.682927	1.829268	0.3658537	-41	49	-436	0.8288029	-0.05197302	-0.07589953	0.5519273
5	100	1555487720	70.943	-189.344	1015.406	-2.682927	1.585366	0.3658537	-39	48	-435	0.8287854	-0.05185095	-0.0761742	0.5519273
5	100	1555487720	64.782	-191.662	1009.977	-2.560976	1.463415	0.2439024	-39	47	-434	0.8287853	-0.05194251	-0.07611317	0.5519273
5	100	1555487720	60.085	-190.015	1016.565	-2.682927	1.95122	0.2439024	-37	48	-434	0.8287674	-0.05200354	-0.07626575	0.5519273
5	100	1555487720	67.283	-185.074	1006.5	-2.560976	1.707317	0.6097561	-39	48	-436	0.8287938	-0.05185095	-0.07608265	0.5519273
5	100	1555487720	66.002	-188.124	1001.742	-2.560976	1.585366	0.2439024	-41	48	-436	0.8287947	-0.05188147	-0.07605213	0.5519273
5	100	1555487720	71.797	-186.05	987.468	-2.682927	1.95122	0.2439024	-39	49	-434	0.8287938	-0.05185095	-0.07608265	0.5519273
5	100	1555487720	75.335	-182.39	1009.855	-2.804878	1.95122	0.3658537	-40	49	-434	0.8287645	-0.05154576	-0.07638783	0.5519578
5	100	1555487720	71.98	-189.283	992.104	-2.560976	1.95122	0.2439024	-39	49	-436	0.8287498	-0.05145421	-0.07638783	0.5519883
5	100	1555487720	69.174	-192.577	1003.633	-2.439024	1.95122	0.4878049	-38	47	-433	0.8287371	-0.05175939	-0.07654043	0.5519578
5	100	1555487720	65.209	-193.797	1012.905	-2.682927	1.219512	-0.1219512	-40	49	-435	0.8287346	-0.05203406	-0.07660146	0.5519273
5	100	1555487720	63.806	-193.248	1028.155	-2.560976	1.707317	0.3658537	-39	50	-436	0.828732	-0.05230873	-0.0766625	0.5518968
5	100	1555487720	64.782	-190.076	1003.267	-2.439024	1.463415	0.3658537	-39	48	-434	0.8287427	-0.05221717	-0.07638783	0.5519273
5	100	1555487720	62.769	-192.943	1008.94	-2.682927	1.585366	0.2439024	-39	49	-434	0.8287221	-0.05218665	-0.07663198	0.5519273
5	100	1555487720	71.614	-189.161	988.322	-2.439024	1.829268	0	-40	47	-435	0.8287106	-0.05215614	-0.0769982	0.5518968
5	100	1555487720	65.575	-186.843	1003.511	-2.682927	1.585366	0.2439024	-39	49	-436	0.8287006	-0.05203406	-0.07696768	0.5519273
5	100	1555487720	67.771	-188.856	1000.766	-2.682927	1.95122	0.2439024	-38	49	-434	0.8287227	-0.05218665	-0.07684561	0.5518968
5	100	1555487720	71.065	-190.076	1006.927	-2.439024	1.463415	0.4878049	-39	50	-435	0.8286846	-0.05206458	-0.07712028	0.5519273
5	100	1555487720	72.712	-186.904	1005.951	-2.804878	1.463415	0.3658537	-39	48	-434	0.8286923	-0.05185095	-0.07718132	0.5519273
5	100	1555487720	67.771	-184.891	1030.29	-2.682927	1.585366	0.1219512	-37	49	-434	0.8287225	-0.05182043	-0.07687613	0.5519273
5	100	1555487720	67.405	-188.124	1029.314	-2.560976	1.829268	0.1219512	-38	50	-435	0.8287259	-0.05166784	-0.07672353	0.5519578
5	100	1555487720	56.12	-193.309	994.483	-2.804878	1.829268	0.3658537	-40	50	-435	0.8287544	-0.0519425	-0.07644887	0.5519273
5	100	1555487720	59.658	-191.052	1005.707	-2.560976	1.707317	0.4878049	-38	49	-437	0.828725	-0.05218666	-0.07660147	0.5519273
5	100	1555487720	71.858	-186.05	993.324	-2.804878	1.585366	0.4878049	-39	49	-436	0.8286947	-0.0517594	-0.0769982	0.5519578
5	100	1555487720	71.614	-186.904	998.326	-2.682927	2.073171	0.3658537	-39	48	-435	0.8286853	-0.05163732	-0.07718132	0.5519578
5	100	1555487720	72.834	-178.73	1003.694	-2.560976	1.829268	0.2439024	-39	49	-435	0.8286924	-0.05114902	-0.07721183	0.5519883
5	100	1555487720	78.69	-185.135	1021.628	-2.682927	1.463415	0.2439024	-40	49	-433	0.8286709	-0.05102694	-0.07730338	0.5520188
5	100	1555487720	72.529	-184.159	1006.805	-2.682927	1.829268	0.2439024	-39	49	-434	0.8287321	-0.05114902	-0.07678457	0.5519883
5	100	1555487720	76.006	-188.49	1011.807	-2.682927	1.707317	0.2439024	-38	49	-434	0.8287283	-0.05130161	-0.07672353	0.5519883
5	100	1555487720	69.418	-191.296	1016.565	-2.560976	1.95122	0.1219512	-38	48	-433	0.828741	-0.0516068	-0.07660146	0.5519578
5	100	1555487720	65.453	-191.601	1007.659	-2.682927	1.829268	0.4878049	-39	49	-436	0.8287457	-0.05157628	-0.07657094	0.5519578
5	100	1555487720	54.473	-193.553	986.98	-2.804878	1.585366	0.2439024	-39	49	-435	0.8287642	-0.05182043	-0.07620472	0.5519578
5	100	1555487720	61.793	-191.967	1008.696	-2.560976	1.95122	0.3658537	-39	47	-437	0.8287469	-0.05197302	-0.0765099	0.5519273
5	100	1555487720	68.076	-191.967	998.326	-2.560976	1.707317	0.3658537	-37	48	-434	0.8287072	-0.05206458	-0.07687613	0.5519273
5	100	1555487720	68.259	-184.342	1000.095	-2.560976	1.707317	0.3658537	-39	48	-435	0.828721	-0.05178991	-0.07669301	0.5519578
5	100	1555487720	70.821	-185.196	987.59	-2.682927	1.585366	0.3658537	-39	48	-434	0.8287221	-0.05172887	-0.07672353	0.5519578
5	100	1555487720	78.446	-181.536	1009.55	-2.682927	1.585366	0.2439024	-38	47	-435	0.8287047	-0.0512711	-0.0769982	0.5519883
5	100	1555487720	81.191	-190.137	1003.084	-2.317073	1.829268	0.3658537	-38	47	-434	0.8286971	-0.05130161	-0.07705924	0.5519883
5	100	1555487720	72.834	-191.296	1015.589	-2.682927	1.585366	0.2439024	-37	48	-436	0.8287004	-0.05148473	-0.07712027	0.5519578
5	100	1555487720	73.017	-192.089	1010.831	-2.682927	1.707317	0.2439024	-40	47	-437	0.828707	-0.05142369	-0.07708976	0.5519578
5	100	1555487720	66.124	-188.063	1007.903	-2.682927	1.585366	0.3658537	-38	48	-437	0.8287038	-0.05133213	-0.07696768	0.5519883
5	100	1555487720	57.401	-186.965	1002.291	-2.560976	1.341463	0.3658537	-38	48	-436	0.8287743	-0.05133213	-0.07620472	0.5519883
5	100	1555487720	64.477	-186.477	1002.535	-2.926829	1.707317	0.6097561	-38	49	-436	0.8288125	-0.05130161	-0.07580798	0.5519883
5	100	1555487720	77.165	-190.808	995.703	-2.560976	1.829268	0.3658537	-40	48	-436	0.828779	-0.0511185	-0.07629628	0.5519883
5	100	1555487720	63.013	-185.562	1003.633	-2.560976	1.707317	0.2439024	-39	49	-435	0.8287593	-0.05130161	-0.07638783	0.5519883
5	100	1555487720	73.993	-188.368	1009.672	-2.560976	1.707317	0.2439024	-39	49	-433	0.828741	-0.05142369	-0.07672353	0.5519578
5	100	1555487720	74.176	-191.296	994.544	-2.682927	1.95122	0	-39	47	-435	0.8287494	-0.05142368	-0.07663197	0.5519577
5	100	1555487720	65.453	-192.394	1005.097	-2.560976	1.707317	0.1219512	-39	50	-435	0.8287103	-0.05169836	-0.07708976	0.5519273
5	100	1555487720	174.216	-765.855	930.982	35.36586	-21.34146	84.39024	-39	48	-435	0.8276507	-0.05066072	-0.07690664	0.5536362
5	100	1555487720	147.62	-432.856	852.353	-56.70732	-51.95122	362.8049	-49	43	-439	0.8098534	-0.0553911	-0.0819422	0.5782342
5	100	1555487720	407.663	-507.215	1170.163	62.68293	-10.73171	141.3415	-59	34	-440	0.7985815	-0.05374309	-0.07989746	0.5941343
5	100	1555487720	542.839	-493.49	-217.404	-162.8049	60	219.6342	-70	26	-440	0.7847652	-0.05453658	-0.08551286	0.6114383
5	100	1555487720	706.319	-456.829	859.429	-151.3415	-6.341464	85.12196	-70	33	-447	0.7762718	-0.06784265	-0.09030427	0.6201972
5	100	1555487720	347.456	-524.6	976	-33.78049	4.146341	15.12195	-68	38	-447	0.7751567	-0.07397687	-0.09149449	0.620716
5	100	1555487720	546.377	-419.924	1130.757	19.7561	-72.31708	84.39024	-75	36	-448	0.7709031	-0.06830043	-0.0949736	0.6261178
5	100	1555487720	519.842	-557.235	-255.712	13.29268	-19.5122	5.121951	-83	30	-450	0.7685159	-0.06347851	-0.09567554	0.6294443
5	100	1555487720	260.165	-772.992	262.849	102.561	-20.85366	-83.65854	-79	32	-451	0.7697105	-0.06491287	-0.09350871	0.6281625
5	100	1555487720	-213.195	65.209	998.448	62.92683	4.268293	-21.95122	-79	32	-451	0.7761272	-0.05798517	-0.09210486	0.6211127
5	100	1555487720	196.969	-417.972	611.098	62.80488	-77.31708	67.31708	-78	32	-453	0.7741102	-0.05749686	-0.09164707	0.6237372
5	100	1555487720	142.13	-320.86	609.39	-101.7073	-16.09756	198.4146	-79	27	-453	0.7660424	-0.06222724	-0.08890042	0.6335642
5	100	1555487720	-120.17	-482.998	164.944	50.4878	-102.1951	275	-87	22	-454	0.7531602	-0.0595111	-0.08832057	0.6491592
5	100	1555487720	86.803	241.255	840.641	-75.85366	41.82927	344.5122	-103	13	-456	0.737922	-0.05697807	-0.0901822	0.6664022
5	100	1555487720	147.925	-535.031	62.098	34.39024	-75.2439	371.9512	-114	7	-457	0.7157555	-0.05710013	-0.09018219	0.6901456
5	100	1555487720	547.536	-659.715	1416.359	54.5122	-185	385.1219	-134	-3	-459	0.6907279	-0.04904325	-0.09451582	0.7152318
5	100	1555487720	885.11	-656.848	76.921	-48.29268	-99.14635	390.7317	-153	-7	-462	0.6657594	-0.05148473	-0.09732354	0.7379987
5	100	1555487720	642.147	-984.967	-793.305	-216.3415	-250.9756	123.7805	-170	-4	-466	0.6490903	-0.0516068	-0.1075167	0.7513047
5	100	1555487720	-18.178	-276.94	349.896	-89.5122	48.65854	126.4634	-186	7	-473	0.6352157	-0.05829035	-0.1183813	0.7609791
5	100	1555487720	-396.927	-699.426	1003.511	52.56098	120.9756	119.3902	-185	16	-476	0.6267191	-0.06738488	-0.1200293	0.7669913
5	100	1555487720	186.721	-274.988	590.968	181.2195	-75.73171	139.7561	-194	14	-477	0.6164448	-0.05807672	-0.1208228	0.7759026
5	100	1555487720	386.923	-247.721	1288.32	-99.7561	98.90244	-90.97561	-203	9	-477	0.6153715	-0.05832087	-0.1224403	0.7764825
5	100	1555487720	-140.117	240.828	1748.931	40.2439	0.4878049	-338.4146	-188	22	-478	0.6323466	-0.06781213	-0.1230811	0.7618335
5	100	1555487720	-894.199	1003.572	1182.424	204.7561	9.268293	-299.8781	-180	12	-473	0.6550847	-0.05462813	-0.1142613	0.7448652
5	100	1555487720	-1189.439	22.509	1011.319	159.0244	-20.4878	-258.1707	-172	-2	-467	0.6738907	-0.03869747	-0.1026337	0.7306436
5	100	1555487720	-437.736	-234.179	1275.51	53.78049	-31.46342	-79.39024	-169	-11	-463	0.6826277	-0.03097629	-0.09732353	0.7235938
5	100	1555487720	175.253	-490.806	1194.746	24.87805	-134.1463	56.09756	-169	-11	-462	0.6820289	-0.0229194	-0.1007416	0.7239906
5	100	1555487720	516.06	-867.054	917.196	78.90244	-211.5854	224.1463	-171	-15	-462	0.6706439	-0.008911405	-0.1076083	0.7338786
5	100	1555487720	668.255	-619.638	594.689	45	-175	420.1219	-192	-20	-462	0.6458253	0.004425184	-0.1150548	0.7547532
5	100	1555487720	548.268	-234.057	122.061	-156.9512	51.34146	360.2439	-221	-29	-460	0.618651	0.0003967406	-0.1223182	0.7760857
5	100	1555487720	560.956	-78.324	637.328	-346.5854	304.8781	147.9268	-244	-28	-462	0.6044065	-0.03180029	-0.130314	0.7853023
5	100	1555487720	-2.745	426.268	823.073	-261.8293	334.7561	104.3902	-240	-4	-472	0.6000602	-0.07379375	-0.135136	0.7849971
5	100	1555487720	-113.399	-215.452	1050.42	48.65854	-163.6585	137.8049	-213	27	-483	0.5909237	-0.07654043	-0.1284524	0.7927488
5	100	1555487720	124.928	222.406	1043.832	155.9756	-183.4146	-60.97561	-203	30	-482	0.5879526	-0.05154576	-0.1309244	0.7965636
5	100	1555487720	395.036	-341.478	253.272	77.68293	116.4634	-523.7805	-226	15	-479	0.6116359	-0.04196295	-0.1230201	0.7803888
5	100	1555487720	-1319.369	707.905	1192.184	-87.43903	118.9024	-60.85366	-226	4	-476	0.6327023	-0.04821924	-0.1167028	0.7640309
5	100	1555487720	187.331	-967.948	879.437	-103.7805	159.0244	-34.7561	-202	4	-475	0.6321697	-0.06433302	-0.1181982	0.7630543
5	100	1555487720	-319.091	177.144	928.115	114.7561	-91.46342	-10.2439	-191	16	-478	0.6370857	-0.0588702	-0.1172521	0.7595447
5	100	1555487720	134.017	-289.018	751.703	34.63415	-48.78049	103.7805	-186	15	-476	0.6316452	-0.0504471	-0.1164891	0.7647939
5	100	1555487720	235.582	-413.58	606.279	-95.36585	82.31708	49.2683	-195	5	-472	0.6267675	-0.05508591	-0.1174352	0.768334
5	100	1555487720	119.133	-487.878	1499.563	-43.53659	-93.17073	15.85366	-199	7	-477	0.6252226	-0.06256294	-0.1204871	0.7685476
5	100	1555487720	341.417	-455.365	643.184	27.43903	11.58537	1.585366	-193	14	-478	0.6245822	-0.05923643	-0.120426	0.7693411
5	100	1555487720	-96.868	-322.141	1309.365	29.14634	-51.58537	14.26829	-197	14	-476	0.6241161	-0.05908383	-0.1192053	0.7699209
5	100	1555487720	-83.692	-354.471	791.475	-4.878049	-4.512195	-8.658537	-197	13	-478	0.6234496	-0.05725272	-0.120426	0.7704092
5	100	1555487720	30.256	-472.079	919.697	8.04878	45.36586	-57.19512	-199	14	-477	0.6263798	-0.05822932	-0.118778	0.7682119
5	100	1555487720	-144.631	-133.529	1273.131	52.80488	-17.07317	-3.780488	-198	14	-477	0.6291877	-0.05749688	-0.1160924	0.7663808
5	100	1555487720	202.398	-385.703	898.713	-5.731708	-18.65854	36.21951	-193	11	-475	0.6267686	-0.05529954	-0.1161229	0.7685171
5	100	1555487720	153.72	-182.146	898.957	-127.6829	-8.170732	103.2927	-197	8	-475	0.6215533	-0.05847347	-0.1204566	0.7718437
5	100	1555487721	154.879	-316.529	1846.836	-77.92683	2.926829	155.6098	-199	12	-477	0.6113405	-0.06772057	-0.1268654	0.7781914
5	100	1555487721	46.36	-146.705	905.057	4.268293	25.73171	-86.34147	-203	23	-478	0.6124137	-0.06668294	-0.1274758	0.777337
5	100	1555487721	258.579	-546.499	893.65	-57.68293	116.2195	-64.87805	-204	24	-482	0.6162759	-0.07275613	-0.1270791	0.7737968
5	100	1555487721	-81.13	-66.307	1077.016	-22.68293	125.4878	-124.6341	-198	25	-482	0.6235666	-0.08209479	-0.1248512	0.7673574
5	100	1555487721	33.733	16.897	1156.072	298.4146	-40.85366	-235.122	-186	32	-479	0.6377715	-0.07284768	-0.1149327	0.7581103
5	100	1555487721	-262.849	-855.952	-1911	241.3415	-344.7561	-105.3659	-176	22	-479	0.6484283	-0.04168829	-0.09668264	0.7539598
5	100	1555487721	138.653	276.818	-591.09	-101.2195	-11.46342	-98.90244	-181	-10	-466	0.6543882	-0.0291757	-0.104648	0.7483138
5	100	1555487721	-226.981	197.396	451.034	-89.87805	257.439	33.65854	-196	-14	-467	0.657074	-0.0443434	-0.1018403	0.7455978
5	100	1555487721	324.52	2793	1703.669	32.92683	-128.0488	-213.0488	-184	-6	-467	0.6575729	-0.04763939	-0.1022675	0.7448958
5	100	1555487721	-1408.185	297.924	714.005	173.9025	-104.7561	-404.5122	-177	-3	-467	0.6867005	-0.02520829	-0.09772027	0.7199011
5	100	1555487721	-141.215	-789.828	707.722	4.634147	14.87805	-156.0976	-173	-14	-464	0.7010874	-0.01837214	-0.09729301	0.7061678
5	100	1555487721	245	294.813	-324.581	-178.2927	277.9268	-538.0488	-170	-19	-460	0.7205567	-0.04208503	-0.09845271	0.6850795
5	100	1555487721	-1355.664	884.256	1369.084	17.80488	130.3659	99.2683	-147	3	-465	0.7269176	-0.05896176	-0.08600116	0.6787622
5	100	1555487721	77.958	-486.475	955.138	-5	49.63415	49.39024	-117	14	-463	0.723321	-0.06277657	-0.08188116	0.6827601
5	100	1555487721	-39.284	-211.67	1052.311	11.58537	28.17073	47.68293	-115	11	-463	0.720993	-0.06418043	-0.07882931	0.6854457
5	100	1555487721	148.535	-503.86	1022.421	33.78049	47.68293	144.8781	-113	10	-460	0.7159606	-0.06610309	-0.07449568	0.6910001
5	100	1555487721	-17.385	-340.136	892.308	-17.80488	26.95122	255.2439	-113	6	-460	0.7027182	-0.06894131	-0.07071139	0.7045808
5	100	1555487721	21.716	-269.376	974.536	-60.60976	31.70732	309.2683	-116	0	-458	0.6842352	-0.07510605	-0.07022309	0.7219764
5	100	1555487721	41.968	-423.889	937.326	-89.63415	53.04878	371.4634	-121	-1	-459	0.6617364	-0.08481093	-0.07061983	0.7415693
5	100	1555487721	222.406	-300.181	1116.361	-92.80488	95.85366	374.7561	-128	0	-460	0.6358716	-0.09781183	-0.07046725	0.7623219
5	100	1555487721	558.272	-290.909	1173.152	-31.70732	256.8293	263.0488	-136	0	-464	0.6162816	-0.1136204	-0.06042665	0.7769402
5	100	1555487721	279.563	-401.685	1335.839	28.53659	391.9512	207.1951	-131	0	-461	0.6024114	-0.1376385	-0.0393994	0.7852412
5	100	1555487721	86.498	-450.546	1242.204	77.19512	476.7073	188.2927	-112	-4	-454	0.5907365	-0.1655934	-0.009186072	0.789636
5	100	1555487721	-181.902	-337.696	1180.777	99.5122	521.0976	146.8293	-82	-10	-438	0.5804061	-0.1956237	0.02569658	0.7900632
5	100	1555487721	-797.88	-75.884	1263.432	126.9512	474.7561	114.7561	-47	-22	-421	0.5720055	-0.2238533	0.06158635	0.7867061
5	100	1555487721	-1069.818	-173.728	921.832	113.4146	357.6829	131.7073	-13	-34	-398	0.5634869	-0.2443922	0.09244057	0.7837153
5	100	1555487721	-805.383	-510.021	602.802	84.7561	359.7561	139.3902	11	-47	-374	0.5529935	-0.2616657	0.1191443	0.7820063
5	100	1555487721	-585.966	-597.129	841.007	124.1463	396.5854	130.2439	33	-58	-352	0.5421363	-0.281106	0.1477096	0.7779778
5	100	1555487721	-453.535	-540.338	817.644	140.7317	453.9024	110.3659	50	-71	-329	0.5311968	-0.3019196	0.1798456	0.7709281
5	100	1555487721	-441.152	-441.701	1306.986	310.2439	462.9268	129.3902	71	-85	-299	0.5220069	-0.3210548	0.2190619	0.7592396
5	100	1555487721	1003.206	-322.141	-522.648	280.3659	784.1464	230.6098	92	-103	-260	0.5056637	-0.3432722	0.2717063	0.7434004
5	100	1555487721	522.77	-134.627	382.897	152.561	1274.878	249.1463	111	-127	-208	0.465724	-0.3961608	0.338786	0.7151097
5	100	1555487721	-3626	-708.332	245	786.3415	1163.171	-424.0244	135	-153	-120	0.436987	-0.4616535	0.4093753	0.6544694
5	100	1555487721	-588	-289.811	1768.268	474.1464	387.1951	241.8293	163	-161	-4	0.4285836	-0.480514	0.4704429	0.603412
5	100	1555487721	-320.677	-2989	-3626	-314.6342	-1182.683	-140.8537	171	-161	89	0.4400719	-0.4710837	0.4373608	0.6270028
5	100	1555487721	-1470	-551.074	85.888	-288.9024	-161.7073	-74.5122	174	-156	41	0.4586015	-0.4519486	0.39494	0.655324
5	100	1555487721	-1072.136	-1007.11	823.256	203.0488	147.6829	-80.60976	176	-144	-22	0.4645276	-0.4539323	0.3960692	0.6490676
5	100	1555487721	-688.568	-474.763	794.281	250.9756	217.561	-72.19512	181	-139	-17	0.4709452	-0.4585711	0.4160588	0.6283456
5	100	1555487721	-767.563	-511.18	573.095	122.561	134.0244	-98.29269	188	-135	12	0.4764922	-0.4636677	0.4289071	0.6115604
5	100	1555487721	-1008.086	-419.436	749.446	104.6341	80	-132.561	194	-130	35	0.4836991	-0.4686422	0.4332408	0.5989258
5	100	1555487721	-1212.436	-272.426	961.97	158.0488	107.6829	-154.2683	202	-120	47	0.4934111	-0.4730674	0.4382764	0.5836666
5	100	1555487721	-1192.184	-359.534	1002.901	200.7317	120.122	-185.8537	212	-106	62	0.5055345	-0.47734	0.4455397	0.5639821
5	100	1555487721	-1070.367	-629.52	879.193	185.3659	112.1951	-250.8537	220	-91	75	0.5199341	-0.4826198	0.4510026	0.541612
5	100	1555487721	-1081.957	-629.337	906.033	186.5854	75.48781	-334.7561	230	-70	100	0.5383989	-0.4901578	0.4506363	0.5165257
5	100	1555487721	-1257.82	-819.962	1043.649	241.2195	43.53659	-402.561	245	-40	118	0.5625117	-0.4967498	0.4462417	0.4875332
5	100	1555487721	-1449.36	-760.304	722.423	290	11.46342	-399.0244	258	-5	130	0.5902238	-0.4996796	0.4405957	0.4558855
5	100	1555487721	-1583.072	-759.084	326.167	246.9512	-12.31707	-297.439	272	38	140	0.6150492	-0.498764	0.4360179	0.4275948
5	100	1555487721	-1292.041	-871.019	335.561	187.439	-116.5854	-211.3415	283	72	147	0.6354262	-0.4939726	0.429548	0.4095279
5	100	1555487721	-871.141	-977.159	29.89	130.2439	-208.9025	-223.7805	288	98	147	0.656798	-0.4861904	0.4154179	0.3995788
5	100	1555487721	-923.906	-870.287	82.106	94.14635	-141.8293	-214.7561	294	124	133	0.6750502	-0.4821619	0.3993347	0.3903317
5	100	1555487721	-1080.615	-723.338	-207.583	109.6341	-21.21951	-167.6829	300	142	118	0.6887616	-0.4792322	0.3906064	0.3786432
5	100	1555487721	-1061.888	-857.172	-233.264	166.0976	-21.21951	-145.6098	303	163	113	0.7014938	-0.4737083	0.387402	0.365276
5	100	1555487721	-1081.835	-913.17	-41.541	159.8781	40.2439	-138.4146	307	179	114	0.7117677	-0.469039	0.3877682	0.3507493
5	100	1555487721	-1250.744	-821.975	106.75	191.8293	68.04878	-116.3415	309	194	117	0.720904	-0.4636982	0.3917966	0.3343302
5	100	1555487721	-1174.921	-846.68	51.789	194.7561	37.56098	-95.48781	311	210	126	0.7301034	-0.4560991	0.3966491	0.3187353
5	100	1555487721	-922.442	-958.432	-123.098	182.0732	-40.97561	-98.65854	313	222	130	0.7404549	-0.4468825	0.3975951	0.3064974
5	100	1555487721	-859.124	-993.69	-307.257	145.3659	-110.6098	-108.0488	314	234	123	0.7525352	-0.4374828	0.3922849	0.2973418
5	100	1555487721	-981.49	-1159.183	-475.678	66.34146	-114.8781	-115.6098	317	246	118	0.7633653	-0.4314402	0.3826716	0.2910245
5	100	1555487721	-1092.571	-983.442	-492.88	-24.87805	-72.56097	-126.3415	319	259	105	0.7700468	-0.432783	0.371868	0.2853786
5	100	1555487721	-1061.522	-938.607	-497.516	-67.92683	-44.14634	-125.6098	323	273	91	0.7730933	-0.4384289	0.3622242	0.2808924
5	100	1555487721	-1045.113	-879.986	-233.02	-83.65854	-32.92683	-135	325	285	88	0.7743434	-0.4469741	0.3527634	0.2759789
5	100	1555487721	-1073.783	-913.17	83.082	-60.85366	-51.21951	-137.561	326	297	83	0.7762697	-0.4548174	0.3426618	0.2704245
5	100	1555487721	-1165.71	-896.944	208.559	-45.97561	-72.80488	-125.6098	325	311	79	0.7793118	-0.4604023	0.3319499	0.2655416
5	100	1555487721	-1065.426	-874.069	181.414	-28.17073	-170.1219	-120.122	325	327	73	0.7844654	-0.463332	0.3174841	0.2629475
5	100	1555487721	-944.524	-798.124	-147.498	-100.3659	-205.7317	-120.8537	324	337	61	0.7901693	-0.4664144	0.2971892	0.2641377
5	100	1555487721	-885.781	-818.437	-97.417	-140.9756	-168.5366	-96.34147	321	352	44	0.7920012	-0.4738304	0.2766198	0.2677694
5	100	1555487721	-952.21	-777.14	-126.514	-121.4634	-79.87805	-51.21951	317	363	31	0.7909096	-0.4818567	0.2626118	0.2707602
5	100	1555487721	-980.697	-711.26	-266.875	-112.1951	-54.39024	-24.87805	312	371	26	0.7884101	-0.4886319	0.2547075	0.2734459
5	100	1555487721	-1005.097	-741.882	-222.345	-172.6829	-82.19512	-27.68293	307	376	25	0.784485	-0.4973907	0.2450331	0.2777489
5	100	1555487721	-1069.879	-739.747	205.021	-200.6098	-71.46342	0.2439024	305	382	24	0.7780021	-0.5088657	0.234199	0.284463
5	100	1555487721	-1029.497	-609.939	548.024	-164.0244	-36.09756	27.19512	301	384	20	0.77058	-0.519303	0.2270882	0.2914823
5	100	1555487721	-996.191	-445.666	765.733	-132.439	-27.43903	32.68293	298	384	23	0.7638325	-0.5275124	0.2229682	0.2976165
5	100	1555487721	-983.808	-326.777	704.733	-104.8781	-57.80488	36.09756	297	383	23	0.7584593	-0.5332499	0.2187262	0.3042085
5	100	1555487721	-1014.613	-214.476	601.338	-72.92683	-103.4146	41.70732	298	380	21	0.7551473	-0.5356914	0.2125614	0.312418
5	100	1555487721	-1182.363	-229.482	339.77	-68.41463	-122.3171	34.2683	296	377	15	0.7534541	-0.5356609	0.2045656	0.3217567
5	100	1555487721	-1301.923	-163.48	272.304	-76.70732	-110.122	56.58537	296	374	6	0.7506943	-0.5362102	0.1973022	0.3316752
5	100	1555487721	-1365.119	-52.582	285.358	-104.3902	-106.9512	53.04878	292	371	-1	0.7468406	-0.5380413	0.1895505	0.3417768
5	100	1555487721	-1242.265	-118.218	333.365	-94.63415	-30.60976	81.95122	293	370	-10	0.7411053	-0.541551	0.1849422	0.3511155
5	100	1555487721	-1308.633	-112.179	440.969	-60.73171	91.58537	89.2683	293	365	-12	0.7344803	-0.5455794	0.190466	0.3558153
5	100	1555487721	-1494.866	-11.468	681.797	-72.92683	106.3415	92.07317	293	359	-5	0.726934	-0.5514999	0.1991943	0.3574022
5	100	1555487721	-1664.873	18.483	711.626	-85.36585	92.07317	121.8293	295	352	7	0.7177923	-0.5578784	0.2079531	0.3609729
5	100	1555487721	-1515.423	13.237	614.514	-46.21951	81.82927	125.122	297	345	18	0.7091987	-0.5620899	0.2175054	0.3657643
5	100	1555487721	-1532.442	39.101	539.667	-12.68293	37.92683	121.9512	299	334	28	0.7031814	-0.5627919	0.2262642	0.3709525
5	100	1555487721	-1544.703	120.841	388.753	6.097561	-16.82927	139.0244	300	322	32	0.6988759	-0.5601977	0.2329478	0.3787957
5	100	1555487721	-1464.488	109.495	211.365	20.2439	-25.85366	154.2683	302	314	32	0.6953971	-0.5551317	0.2388684	0.3888364
5	100	1555487721	-1361.215	17.934	186.538	42.31707	4.268293	164.1463	304	301	29	0.691775	-0.54915	0.247322	0.3983886
5	100	1555487721	-1159.671	-2.44	86.01	54.5122	38.41463	139.2683	303	287	28	0.6883954	-0.5435957	0.2576983	0.4052248
5	100	1555487721	-1019.005	-11.59	51.057	69.5122	68.04878	91.46342	305	275	29	0.686308	-0.5391705	0.2685324	0.4076357
5	100	1555487721	-894.26	-54.9	-58.438	90.48781	99.14635	66.46342	305	268	34	0.6856335	-0.5352031	0.2801599	0.4061708
5	100	1555487721	-733.769	-89.914	-223.809	78.41463	135.3659	32.43903	309	263	42	0.685239	-0.5327922	0.2926115	0.4011963
5	100	1555487721	-881.938	-157.685	-237.534	97.43903	124.2683	15.2439	309	258	53	0.6854227	-0.5311136	0.3047273	0.3940245
5	100	1555487721	-654.774	-294.447	-398.147	87.68293	79.87805	-9.268293	313	256	63	0.6877844	-0.5279397	0.3136693	0.3870968
5	100	1555487721	-932.751	-380.823	-334.585	87.68293	94.02439	26.70732	314	254	73	0.6896237	-0.5245522	0.3221534	0.3814203
5	100	1555487721	-659.288	-584.929	-284.626	102.561	71.82927	52.07317	315	252	80	0.6901747	-0.5201269	0.3324076	0.3776666
5	100	1555487721	-130.845	-348.371	-79.605	110.7317	60.73171	98.41463	313	247	87	0.6901186	-0.5137486	0.3436384	0.3764459
5	100	1555487721	175.558	-330.803	-343.186	95.73171	34.5122	131.7073	314	239	93	0.6896513	-0.5044099	0.355327	0.3790704
5	100	1555487721	667.462	-237.107	-499.285	66.70732	87.56097	10.36585	312	227	101	0.6890835	-0.4989166	0.365154	0.3780328
5	100	1555487721	562.054	-374.235	-675.209	0.2439024	165.8537	-129.1463	311	220	104	0.6897596	-0.5024873	0.3697623	0.3674429
5	100	1555487722	-249.49	-247.05	-538.447	-92.31708	238.9025	-143.5366	309	228	118	0.6849412	-0.517777	0.3746147	0.3498947
5	100	1555487722	-725.473	-294.142	-218.929	-118.9024	237.8049	-24.02439	306	240	140	0.6742617	-0.5337688	0.3818781	0.3385724
5	100	1555487722	-296.826	-151.463	-309.575	-144.0244	235.2439	25.12195	300	245	164	0.6597283	-0.5477462	0.3924986	0.3326823
5	100	1555487722	26.84	-78.507	-290.909	-163.0488	223.7805	11.82927	297	240	185	0.6439054	-0.5624866	0.4018983	0.3278298
5	100	1555487722	42.151	-44.408	-204.777	-170.2439	219.6342	1.585366	289	236	208	0.6276065	-0.5777154	0.409711	0.3232521
5	100	1555487722	-52.826	-27.572	-272.609	-163.2927	206.5854	-16.46342	285	228	230	0.6121006	-0.5927	0.4158758	0.3179419
5	100	1555487722	-38.552	-6.1	365.451	-217.0732	352.439	32.56098	275	223	251	0.5850024	-0.6128422	0.4307688	0.3108615
5	100	1555487722	-159.82	-11.712	47.031	-158.2927	272.3171	-23.41463	263	213	282	0.565152	-0.6297494	0.4402905	0.3002716
5	100	1555487722	-59.597	-74.542	144.814	-118.9024	205.6098	-46.21951	252	207	308	0.5496098	-0.6435133	0.4463332	0.2908719
5	100	1555487722	-49.837	-160.247	135.237	-97.31708	179.5122	-89.5122	242	205	327	0.5386742	-0.6556597	0.4481643	0.2812281
5	100	1555487722	-210.084	-303.841	-98.088	-84.87805	246.0976	-118.5366	233	205	342	0.5278793	-0.6689963	0.4499039	0.267159
5	100	1555487722	-377.102	-528.748	-224.846	-81.58537	267.8049	-154.5122	223	211	361	0.5160233	-0.6840724	0.4517045	0.2484512
5	100	1555487722	-876.814	-732.854	-339.038	-88.53659	263.5366	-157.1951	207	216	380	0.5037203	-0.700003	0.4515213	0.2288888
5	100	1555487722	-1198.65	-872.056	-470.066	-83.04878	210	-129.6342	193	223	398	0.4556713	-0.7725151	0.3407086	0.2819605
5	100	1555487722	-1084.763	-878.156	-489.647	-71.58537	137.1951	-90	181	225	415	0.4043123	-0.823542	0.2204657	0.3312174
5	100	1555487722	-689.727	-825.757	-366.549	-72.68293	88.65854	-93.78049	170	229	428	0.3610865	-0.8495743	0.1203345	0.3651845
5	100	1555487722	-360.937	-822.341	-266.448	-65.48781	101.5854	-158.7805	164	231	434	0.3277451	-0.8621174	0.03711051	0.3846553
5	100	1555487722	-339.282	-681.126	-123.952	-30.60976	162.9268	-174.3902	156	237	438	0.3041154	-0.8682516	-0.03137303	0.3907285
5	100	1555487722	-308.965	-829.295	-178.791	-22.19512	168.6585	-223.6585	148	244	453	0.2894709	-0.87051	-0.08868679	0.3880123
5	100	1555487722	-279.685	-816.485	-551.623	33.04878	161.4634	-230.3659	136	253	463	0.2842401	-0.8686789	-0.1372723	0.3817866
5	100	1555487722	-122.793	-772.321	-970.083	64.5122	142.9268	-301.2195	123	267	472	0.2865583	-0.8629414	-0.1817072	0.3744316
5	100	1555487722	-288.713	-766.099	-1130.879	-12.43902	106.7073	-383.5366	109	286	480	0.2910374	-0.8533586	-0.2306589	0.3658864
5	100	1555487722	-1576.057	-1368.657	-606.279	-5.121951	93.90244	-158.2927	96	307	485	0.2908434	-0.844966	-0.2693869	0.3589892
5	100	1555487722	-485.865	-1615.402	-186.233	86.09756	70.97561	-113.5366	86	318	490	0.2902794	-0.8366344	-0.2941679	0.359508
5	100	1555487722	-749.812	-1505.846	-411.811	71.82927	35.97561	-24.5122	80	327	493	0.2916772	-0.827662	-0.3117466	0.3642994
5	100	1555487722	-25.437	-1418.25	-763.537	-122.0732	-68.65854	-52.07317	77	335	490	0.282808	-0.82107	-0.3303629	0.3697623
5	100	1555487722	313.296	-878.095	-509.655	-171.0976	-118.4146	-134.8781	80	330	488	0.2672772	-0.8142644	-0.3548997	0.3736076
5	100	1555487722	24.034	-589.626	-230.763	-183.7805	-41.46342	-150.2439	84	326	487	0.255973	-0.8106327	-0.3744621	0.3703116
5	100	1555487722	-147.559	-558.089	39.894	-95.85366	32.56098	-150	86	322	486	0.2532423	-0.810358	-0.3856014	0.3612476
5	100	1555487722	-174.887	-526.003	7.137	-46.58537	4.634147	-150.7317	83	321	493	0.256739	-0.809595	-0.3926817	0.3527634
5	100	1555487722	-306.647	-527.528	-161.711	-15.36585	-27.92683	-127.8049	77	323	496	0.26061	-0.807184	-0.3987548	0.3486129
5	100	1555487722	-170.007	-668.377	-328.058	21.46342	-15.85366	-127.9268	76	329	494	0.2661684	-0.8041933	-0.4031495	0.346263
5	100	1555487722	28.853	-662.216	-463.6	51.58537	0.2439024	-156.3415	73	334	492	0.2751573	-0.7999207	-0.4079104	0.3435469
5	100	1555487722	281.759	-870.714	-618.845	40.60976	1.341463	-212.1951	73	347	489	0.285644	-0.7938169	-0.4158452	0.33961
5	100	1555487722	-389.729	-1367.559	-895.358	-20.2439	77.07317	-253.5366	67	358	487	0.2966561	-0.7874081	-0.4281442	0.329661
5	100	1555487722	-1034.377	-1421.178	-857.294	-106.4634	115.7317	-171.8293	57	371	490	0.3023513	-0.7852412	-0.4402295	0.3133335
5	100	1555487722	-346.541	-1362.557	-769.515	-174.3902	60.2439	-110.4878	44	370	500	0.2989311	-0.7867977	-0.4499039	0.2986236
5	100	1555487722	-35.258	-1235.128	-458.11	-221.7073	6.829268	-150.6098	34	366	507	0.2889365	-0.787286	-0.4638813	0.2855006
5	100	1555487722	-1729.899	-844.728	-17.751	-192.0732	-60.12195	-71.95122	28	355	515	0.2784035	-0.7875606	-0.4761803	0.2747581
5	100	1555487722	-159.698	-1121.851	-94.001	-81.34147	-36.21951	-90.85366	28	346	519	0.2694818	-0.7863399	-0.4857326	0.270394
5	100	1555487722	-310.307	-886.086	-559.858	-34.39024	-27.19512	-81.09756	26	341	518	0.2677467	-0.7828303	-0.4933012	0.2685934
5	100	1555487722	24.4	-773.663	-514.047	-55.97561	-44.14634	-72.92683	26	343	517	0.2643908	-0.7798395	-0.5001984	0.267861
5	100	1555487722	75.64	-673.318	-475.861	-53.29268	-27.80488	-78.53659	28	342	509	0.2611732	-0.7767266	-0.5074618	0.2663961
5	100	1555487722	-137.006	-845.826	-560.956	-44.02439	4.878049	-78.65854	29	342	516	0.2595014	-0.7739189	-0.5142674	0.2631306
5	100	1555487722	-317.871	-990.64	-745.298	-27.31707	12.80488	-56.82927	24	342	517	0.2594341	-0.7718741	-0.5191809	0.2595294
5	100	1555487722	-403.942	-972.035	-887.062	-44.87805	2.317073	-24.02439	24	345	519	0.2583924	-0.7709586	-0.5224463	0.2567217
5	100	1555487722	-287.859	-864.309	-631.533	-35.4878	-13.90244	-10.12195	22	340	519	0.2558911	-0.7708976	-0.5246742	0.2548601
5	100	1555487722	-188.734	-785.131	-446.093	-17.68293	-40.85366	1.097561	22	339	519	0.2526847	-0.7705314	-0.5261696	0.2560808
5	100	1555487722	-94.55	-684.603	-385.825	-6.341464	-63.53659	4.02439	24	338	517	0.2492692	-0.7696768	-0.5272683	0.2597125
5	100	1555487722	1154.669	-790.743	271.328	68.04878	-109.8781	-233.5366	31	338	514	0.2492011	-0.7629017	-0.5344707	0.2649922
5	100	1555487722	-687.348	-662.643	-841.068	53.65854	-19.7561	-97.56097	33	345	509	0.2609749	-0.7629628	-0.529313	0.2638325
5	100	1555487722	77.348	-775.737	-832.406	-20.4878	43.04878	-104.3902	34	359	504	0.2692723	-0.7688528	-0.5208899	0.2550127
5	100	1555487722	-117.547	-816.973	-711.138	-42.19512	78.04878	-79.5122	28	361	507	0.27534	-0.7743766	-0.5153966	0.2426832
5	100	1555487722	-68.32	-830.332	-745.298	-26.70732	52.92683	-70.2439	20	362	511	0.2798543	-0.7776726	-0.5125278	0.2328562
5	100	1555487722	-166.53	-784.399	-754.692	-26.46342	36.46342	-46.70732	13	360	515	0.282639	-0.7796258	-0.5111851	0.2258064
5	100	1555487722	-164.517	-731.39	-610.793	-15	19.7561	-12.92683	9	363	514	0.2839206	-0.7810296	-0.5101473	0.2216559
5	100	1555487722	50.325	-564.555	-598.227	1.463415	16.58537	-5	8	361	510	0.284961	-0.7818842	-0.5089572	0.2200385
5	100	1555487722	218.502	-504.348	-575.779	5.121951	25.97561	-18.04878	4	362	517	0.2867175	-0.7818232	-0.5086825	0.2186041
5	100	1555487722	214.171	-577.609	-487.39	19.02439	23.29268	-29.63415	3	362	517	0.289412	-0.7808771	-0.5093539	0.2168645
5	100	1555487722	-1812.981	943.792	3773	-337.561	-103.4146	124.6341	0	365	519	0.2816064	-0.784051	-0.5089572	0.2166204
5	100	1555487722	218.258	-1060.302	183.488	-300.8537	-62.56098	141.7073	6	351	519	0.2524523	-0.7942137	-0.5117038	0.2089297
5	100	1555487722	49.41	-1438.258	780.922	-91.95123	-84.2683	57.19512	12	319	529	0.227216	-0.8042238	-0.5113987	0.2001709
5	100	1555487722	112.728	-992.897	-548.512	-96.95123	82.31708	-27.19512	16	299	533	0.2218342	-0.8059328	-0.5128636	0.1955321
5	100	1555487722	-713.578	539	361.364	-27.68293	46.70732	11.58537	13	293	537	0.2193894	-0.80871	-0.5120701	0.1887875
5	100	1555487722	-807.274	-1674.267	-114.68	-52.80488	66.70732	-50.12195	9	286	542	0.2172579	-0.8091983	-0.514481	0.1825007
5	100	1555487722	-223.382	-394.121	-1034.377	-30.73171	38.04878	-42.19512	5	284	545	0.2168016	-0.8083133	-0.5178991	0.177221
5	100	1555487722	68.625	-904.752	-268.583	-41.82927	6.097561	-60.12195	0	284	547	0.216368	-0.8073671	-0.5209205	0.173162
5	100	1555487722	19.581	-1183.156	-197.945	25.36585	-0.3658537	-40.36586	-1	281	548	0.2181161	-0.8057802	-0.5231788	0.1715445
5	100	1555487722	107.665	-1684.515	159.454	-9.268293	-30	-55.73171	-3	283	548	0.2185895	-0.8032166	-0.5268105	0.1718497
5	100	1555487722	30.256	-586.21	-728.401	-12.07317	-46.34146	-107.0732	-2	285	547	0.2181872	-0.7991272	-0.5331584	0.1718497
5	100	1555487722	-11.529	-604.266	-775.249	-55.2439	-49.87805	-135.3659	-1	291	548	0.2152133	-0.7932066	-0.54326	0.1713919
5	100	1555487722	-29.585	-570.411	-758.047	-87.56097	-52.92683	-130.4878	0	289	545	0.2093579	-0.7874691	-0.5545518	0.16892
5	100	1555487722	-34.526	-507.276	-827.16	-126.5854	-38.65854	-121.4634	2	288	547	0.2015573	-0.7824031	-0.5657216	0.164861
5	100	1555487722	-6.1	-491.355	-902.617	-195.1219	-9.268293	-98.29269	3	284	546	0.1901601	-0.7799309	-0.5752739	0.1568651
5	100	1555487722	-33.001	-446.947	-819.718	-283.2927	-6.707317	-102.6829	3	271	548	0.1729036	-0.7793207	-0.5848872	0.1437727
5	100	1555487722	-790.804	294.081	-841.068	-352.6829	-49.39024	94.2683	1	250	552	0.1506191	-0.7846614	-0.5880306	0.1258583
5	100	1555487722	194.285	-729.194	-342.881	-351.2195	-230.9756	24.7561	0	221	556	0.1178036	-0.7907956	-0.5895261	0.1149937
5	100	1555487722	219.356	-676.612	-567.91	-310.2439	-65.60976	-82.92683	11	193	549	0.09077535	-0.7886593	-0.5984679	0.1077609
5	100	1555487722	-162.321	-418.033	-1423.313	-241.0976	-87.92683	-106.5854	18	175	547	0.07067355	-0.7826777	-0.6098819	0.102298
5	100	1555487722	-307.745	423.157	-478.362	-245.7317	81.46342	31.09756	26	161	542	0.05695701	-0.781762	-0.6153141	0.08362071
5	100	1555487722	1654.015	-449.387	973.804	-144.8781	-242.439	182.6829	20	139	544	0.0358097	-0.7941832	-0.6005432	0.08566546
5	100	1555487722	1109.285	-261.385	-1020.713	-280.8537	132.8049	46.34146	31	118	530	0.02109663	-0.802057	-0.5922727	0.07397687
5	100	1555487722	-257.237	-389.363	-787.083	-327.561	180.3659	108.4146	21	92	534	0.009555852	-0.8073671	-0.5881527	0.04629658
5	100	1555487722	-463.051	-78.446	-1315.892	-225.8537	128.7805	137.3171	4	66	537	0.006779024	0.8156681	0.578051	-0.02227851
5	100	1555487722	360.632	135.359	-899.384	-31.21951	26.58537	-18.53659	-12	41	540	0.009562088	0.8190252	0.5735649	-0.0113834
5	100	1555487722	-95.709	494.1	-1213.595	-10.36585	15.97561	-50.36586	-17	37	537	0.008890206	0.817072	0.5763726	-0.01043733
5	100	1555487722	116.815	110.044	-789.767	1.219512	-4.390244	-12.43902	-18	38	536	0.00986884	0.8166753	0.5769219	-0.01025422
5	100	1555487722	88.145	229.116	-1079.639	0.2439024	3.780488	-59.02439	-17	36	538	0.01031476	0.8147222	0.5796686	-0.01028474
5	100	1555487722	156.587	317.505	-1148.264	-12.31707	-3.04878	-94.5122	-13	39	536	0.008133951	0.8105106	0.5855587	-0.01129185
5	100	1555487722	-3.05	249.368	-997.777	-21.95122	1.585366	-141.5854	-11	44	538	0.009838594	0.803827	0.5946836	-0.01080355
5	100	1555487722	-119.621	-259.555	-1343.403	-107.6829	13.41463	-106.7073	-9	47	536	0.01271408	0.7979675	0.6025269	-0.006897183
5	100	1555487722	-79.422	-364.414	-879.742	-90.2439	11.58537	-96.09756	-8	45	537	0.01816183	0.7922605	0.6099124	-0.0005188147
5	100	1555487722	18.483	-127.856	-981.307	-112.8049	10	-70.12196	-7	40	533	0.02442261	0.7877132	0.6155278	0.006073183
5	100	1555487722	-212.463	-128.588	-1088.85	-169.1463	21.21951	-65.73171	-6	35	529	0.03323453	0.7830134	0.6209296	0.01522874
5	100	1555487722	90.402	-131.394	-1251.415	-286.2195	48.78049	-86.95123	-7	27	526	0.04625353	0.7780693	0.625782	0.02941984
5	100	1555487722	-175.558	-424.133	3381	-55.60976	42.56098	-61.34146	-8	10	519	0.05272138	0.7734001	0.630604	0.03756829
5	100	1555487722	211.975	-364.597	29.951	0.9756098	3.658537	-118.0488	-6	11	521	0.05228772	0.7673879	0.6378674	0.03881954
5	100	1555487722	4.941	-153.903	-1282.281	-3.536585	31.21951	-9.02439	-6	14	523	0.05158594	0.7668691	0.6385388	0.03897214
5	100	1555487723	44.408	-237.778	-451.034	-53.29268	17.43902	-38.65854	-6	12	522	0.05300945	0.7644276	0.6412854	0.03991821
5	100	1555487723	58.987	-43.737	-690.032	-35.97561	3.658537	14.39024	-6	15	522	0.05218445	0.7645802	0.6411939	0.03955199
5	100	1555487723	-36.234	421.632	-1454.789	16.95122	-21.82927	-20.73171	-7	14	523	0.05192682	0.7648854	0.6408582	0.03942991
5	100	1555487723	44.225	206.18	-951.051	-2.073171	10.2439	4.146341	-6	14	519	0.05180788	0.7641528	0.6417127	0.03988769
5	100	1555487723	258.03	-13.908	-1684.576	-49.63415	15.12195	-56.82927	-7	15	522	0.05208155	0.7634205	0.6425062	0.04077273
5	100	1555487723	27.999	246.013	-942.511	-3.170732	0	9.634147	-6	16	522	0.05208899	0.7646107	0.6411023	0.0405591
5	100	1555487723	-6.344	112.423	-879.254	-2.439024	1.463415	1.95122	-7	13	522	0.05189352	0.7647023	0.6410108	0.04052858
5	100	1555487723	19.764	116.449	-901.519	-3.04878	2.317073	1.463415	-7	16	521	0.05205408	0.7647634	0.6409192	0.04062014
5	100	1555487723	-7.564	112.057	-955.687	-2.926829	2.073171	1.219512	-5	15	522	0.05239988	0.7654347	0.6400342	0.04147466
5	100	1555487723	-167.75	84.119	-956.297	-3.292683	2.317073	-4.512195	-7	15	521	0.05903763	0.7525254	0.6548662	0.03701895
5	100	1555487723	71.614	220.942	-990.091	-0.4878049	3.292683	-26.46342	-6	15	523	0.05762753	0.7548448	0.6522416	0.03833125
5	100	1555487723	67.588	92.11	-932.69	-1.097561	5.365854	-25.85366	-6	15	519	0.05733251	0.7530441	0.6543473	0.03830073
5	100	1555487723	62.83	121.024	-939.461	-1.829268	6.463415	-36.82927	-6	16	523	0.05739123	0.7511216	0.6565447	0.03836177
5	100	1555487723	-122.671	106.079	-918.843	-2.926829	1.829268	-0.6097561	-5	21	523	0.06060148	0.7401348	0.6689046	0.03308206
5	100	1555487723	-5.368	110.898	-888.282	-2.804878	1.95122	0	-5	17	524	0.05908708	0.7442244	0.6643879	0.03503525
5	100	1555487723	1.952	129.991	-885.659	-2.439024	1.707317	-1.585366	-6	18	524	0.05788399	0.7476425	0.6605426	0.0369274
5	100	1555487723	-25.986	97.905	-916.586	-2.804878	2.073171	-4.634147	-4	19	523	0.05807161	0.7467879	0.6615192	0.0364391
5	100	1555487723	95.587	168.909	-962.031	-5.365854	3.04878	-25.2439	-4	20	522	0.05786545	0.746147	0.6622517	0.03659169
5	100	1555487723	221.857	271.999	-826.123	1.341463	24.7561	-128.7805	-3	21	523	0.05792207	0.7410809	0.6678976	0.03683584
5	100	1555487723	-633.363	-171.532	-845.521	1.707317	-0.3658537	-13.29268	-2	25	522	0.05773087	0.7352214	0.674337	0.03723258
5	100	1555487723	-13.969	94.306	-984.601	24.87805	-1.219512	-0.4878049	-1	29	522	0.05601205	0.735374	0.6744285	0.03512681
5	100	1555487723	10.004	112.85	-959.896	3.292683	0.1219512	-0.1219512	1	29	523	0.05531173	0.7354351	0.674459	0.03436384
5	100	1555487723	-12.932	79.3	-1048.468	-10	3.536585	0.4878049	0	30	525	0.05423824	0.7357097	0.6742759	0.03378399
5	100	1555487723	-10.187	90.402	-984.235	-77.43903	13.17073	2.195122	0	30	523	0.05733927	0.7354961	0.6740623	0.03738517
5	100	1555487723	-6.1	128.893	-900.665	-4.146341	2.804878	0.8536586	-2	27	522	0.05774996	0.7360148	0.6734214	0.0380871
5	100	1555487723	-469.151	166.591	-878.766	-3.780488	-2.560976	40.2439	-1	28	520	0.05731276	0.7381817	0.671041	0.03881954
5	100	1555487723	-120.841	155.184	-294.02	23.65854	15.2439	-24.02439	-2	26	524	0.05647517	0.7380291	0.6712852	0.03872799
5	100	1555487723	132.919	-17.202	-763.537	-23.04878	7.560976	-50.97561	-1	28	524	0.05650787	0.7378765	0.6714377	0.03894162
5	100	1555487723	-10.553	219.234	-1050.42	-30.2439	19.39024	-89.39024	0	27	523	0.05684703	0.732841	0.6768395	0.04000977
5	100	1555487723	134.81	706.99	-1124.596	15.36585	29.02439	-159.1463	0	31	523	0.05565978	0.7244789	0.685873	0.04013184
5	100	1555487723	307.623	188.368	-1615.707	-65.48781	47.56098	-236.7073	4	35	526	0.05546346	0.713126	0.6975921	0.0417188
5	100	1555487723	-138.043	-575.962	-1008.696	13.41463	80.97561	-238.4146	8	42	524	0.0538987	0.6977446	0.7130039	0.04327524
5	100	1555487723	254.797	360.815	-495.686	145.2439	43.41463	-348.9024	12	53	529	0.04694108	0.6770226	0.7333598	0.04025391
5	100	1555487723	-709.308	427.305	-1106.845	58.29268	1.463415	-160.6098	18	75	531	0.0429736	0.6613361	0.7481613	0.03228858
5	100	1555487723	-561.2	416.996	-1284.904	-18.04878	-11.82927	151.5854	23	88	533	0.04200922	0.6629536	0.7468184	0.03146458
5	100	1555487723	-89.304	-160.857	-1082.506	-99.39024	-18.17073	266.5854	20	82	531	0.04636423	0.6790979	0.7317423	0.03506577
5	100	1555487723	502.945	-483.181	-813.74	-121.3415	17.31707	75.2439	15	64	530	0.05390921	0.6889859	0.7214575	0.04348888
5	100	1555487723	391.193	93.269	-1036.634	37.07317	12.19512	-31.46342	12	56	527	0.05195207	0.6881313	0.7225257	0.04162725
5	100	1555487723	-86.193	85.278	-1031.266	-45.2439	6.707317	0.9756098	14	59	528	0.05246979	0.6873379	0.7231971	0.04242073
5	100	1555487723	152.988	137.128	-991.189	20.36585	-0.8536586	-2.195122	14	57	528	0.05338759	0.6871548	0.7232276	0.04370251
5	100	1555487723	-3.111	93.757	-960.689	-22.68293	4.268293	0.6097561	13	55	525	0.0536582	0.6867275	0.7236243	0.0435194
5	100	1555487723	-3.599	106.384	-754.814	-11.09756	3.170732	0.4878049	14	55	527	0.05408418	0.6856899	0.7245705	0.04361095
5	100	1555487723	-2.196	111.63	-948.672	-3.170732	1.707317	0.3658537	13	56	528	0.0529847	0.6876431	0.7228004	0.04358043
5	100	1555487723	1.83	119.865	-914.939	-2.804878	1.463415	0.1219512	13	57	526	0.05256683	0.6890469	0.7214575	0.04416028
5	100	1555487723	4.331	117.547	-908.046	-2.804878	2.073171	0.3658537	14	55	527	0.05211931	0.6909696	0.7195959	0.0450148
5	100	1555487723	17.385	115.351	-929.762	-2.682927	1.707317	0.4878049	12	56	527	0.05133286	0.6931975	0.7174292	0.04623555
5	100	1555487723	8.601	111.081	-891.027	-2.804878	2.073171	0.2439024	12	55	527	0.05075835	0.6945707	0.7161168	0.04660176
5	100	1555487723	11.529	116.266	-901.092	-2.682927	1.585366	0.2439024	13	57	527	0.05030304	0.6964019	0.7143162	0.04739524
5	100	1555487723	12.505	110.166	-919.331	-2.926829	1.829268	0.4878049	13	57	528	0.04920993	0.6980498	0.7127598	0.04773095
5	100	1555487723	7.198	116.815	-899.628	-2.560976	1.829268	0.1219512	13	56	524	0.04860116	0.6991791	0.7116611	0.04821924
5	100	1555487723	10.919	109.373	-917.318	-2.439024	1.463415	0.2439024	13	56	526	0.04825284	0.6999725	0.7108982	0.0483108
5	100	1555487723	11.285	115.839	-910.669	-2.804878	1.219512	0.4878049	11	56	528	0.048439	0.7006134	0.7102268	0.04870754
5	100	1555487723	5.185	125.721	-913.231	-2.560976	1.463415	0.2439024	13	55	527	0.04901454	0.6998504	0.7109287	0.04886013
5	100	1555487723	4.026	112.545	-908.046	-2.682927	1.829268	0.7317073	12	55	527	0.0490425	0.6995758	0.7112033	0.04876858
5	100	1555487723	2.806	114.497	-915.854	-2.804878	1.585366	0.4878049	13	55	527	0.04959061	0.6988129	0.7119359	0.0484634
5	100	1555487723	1.769	109.983	-908.534	-2.439024	1.463415	0.3658537	14	56	528	0.0494136	0.6983551	0.7124241	0.04806665
5	100	1555487723	2.257	111.691	-916.037	-2.804878	1.585366	0.7317073	12	55	526	0.04918449	0.6978667	0.7129429	0.04770043
5	100	1555487723	-3.599	114.863	-934.825	-2.926829	1.341463	0.4878049	13	57	528	0.04909777	0.6976836	0.713126	0.04773095
5	100	1555487723	4.148	115.717	-914.39	-2.682927	1.463415	0.1219512	11	56	526	0.04981665	0.6979278	0.7128208	0.0479751
5	100	1555487723	15.25	120.536	-938.912	-2.682927	1.463415	0.2439024	12	56	527	0.0493762	0.6989045	0.7118443	0.04870754
5	100	1555487723	7.015	122	-914.756	-2.560976	1.585366	0.4878049	12	56	527	0.04972744	0.6992706	0.7114475	0.04889065
5	100	1555487723	13.237	112.24	-912.255	-2.682927	1.707317	0.3658537	14	56	525	0.04903156	0.6997894	0.7109897	0.04882962
5	100	1555487723	-2.928	111.813	-908.656	-2.682927	1.95122	0.2439024	14	57	525	0.04933453	0.6989349	0.7118442	0.0483108
5	100	1555487723	-3.294	111.508	-909.205	-2.682927	1.95122	0.6097561	12	54	527	0.04913296	0.698294	0.7125157	0.04788354
5	100	1555487723	5.917	114.68	-902.495	-2.926829	1.707317	0.2439024	14	56	526	0.04955332	0.6980193	0.7127597	0.0478225
5	100	1555487723	0.305	110.41	-917.074	-2.926829	1.829268	0.1219512	12	57	524	0.04951964	0.6977141	0.713065	0.04776147
5	100	1555487723	2.013	113.46	-908.168	-2.682927	1.707317	0.3658537	14	57	528	0.04939189	0.6983857	0.7123936	0.04809717
5	100	1555487723	6.283	113.887	-935.618	-2.682927	1.585366	0.4878049	11	56	526	0.04890192	0.6990875	0.7117221	0.04834132
5	100	1555487723	14.335	115.595	-914.939	-2.560976	1.707317	0.4878049	12	56	528	0.04875055	0.6999725	0.7108371	0.04870754
5	100	1555487723	3.843	119.377	-913.353	-2.560976	1.829268	0.4878049	14	55	525	0.04892203	0.6997894	0.7110202	0.04849391
5	100	1555487723	8.296	113.948	-907.619	-2.926829	1.707317	0.6097561	14	56	526	0.04906559	0.699942	0.7108371	0.04882962
5	100	1555487723	2.562	113.887	-910.547	-2.682927	1.585366	0.2439024	11	56	527	0.04920267	0.6992401	0.711539	0.04852443
5	100	1555487723	5.978	113.826	-921.71	-2.560976	1.585366	0.2439024	11	55	527	0.04880065	0.6997894	0.7110202	0.04861598
5	100	1555487723	7.808	107.238	-922.747	-2.926829	1.707317	0.1219512	14	56	526	0.04853182	0.7000335	0.7108066	0.04849391
5	100	1555487723	3.111	109.068	-918.843	-2.804878	1.829268	0.7317073	14	55	528	0.04797783	0.7002168	0.7106846	0.04818873
5	100	1555487723	13.481	111.386	-915.915	-2.439024	1.707317	0.3658537	13	55	525	0.04792624	0.7005524	0.7103488	0.0483108
5	100	1555487723	17.019	113.826	-917.928	-2.682927	1.95122	0.4878049	12	57	527	0.04756421	0.7005524	0.7103794	0.04821924
5	100	1555487723	5.429	116.388	-922.808	-2.804878	1.707317	0.4878049	14	57	526	0.04792561	0.7003998	0.7105014	0.04828028
5	100	1555487723	14.152	118.279	-907.253	-3.292683	2.317073	0.4878049	13	55	527	0.04787647	0.7006134	0.7102878	0.04837184
5	100	1555487723	17.69	118.096	-932.019	-2.804878	1.585366	0.4878049	12	55	528	0.04797037	0.701529	0.7093417	0.04889065
5	100	1555487723	8.052	112.972	-891.759	-3.04878	1.95122	0.3658537	14	56	529	0.0480734	0.7012239	0.7096469	0.04873806
5	100	1555487723	14.579	114.192	-897.859	-2.804878	1.829268	0.2439024	13	56	528	0.04775181	0.701529	0.7093417	0.04910428
5	100	1555487723	4.819	116.937	-925.797	-2.926829	1.95122	0.4878049	14	56	528	0.0481211	0.7014069	0.7094333	0.04916532
5	100	1555487723	2.806	118.645	-913.719	-2.926829	2.195122	0.3658537	12	56	528	0.04852322	0.7004914	0.7103183	0.04904325
5	100	1555487723	0.854	120.719	-904.203	-2.804878	1.829268	0.3658537	13	56	525	0.04966567	0.6995147	0.7112033	0.04901273
5	100	1555487723	3.538	123.159	-932.995	-2.804878	1.707317	0.6097561	11	55	525	0.04976458	0.699118	0.7115695	0.04925688
5	100	1555487723	9.333	120.353	-912.133	-2.439024	1.097561	0.2439024	11	54	528	0.05070725	0.6989044	0.7116916	0.04956206
5	100	1555487723	7.625	116.632	-904.386	-2.804878	1.341463	0.4878049	13	56	525	0.05039952	0.6991485	0.711478	0.04950102
5	100	1555487723	3.843	117.974	-922.259	-2.804878	1.829268	0.3658537	13	55	526	0.05095292	0.6980498	0.7125462	0.04907376
5	100	1555487723	-0.915	112.24	-914.085	-2.682927	1.585366	0.2439024	12	57	525	0.05037645	0.6978057	0.7128513	0.04870754
5	100	1555487723	7.686	112.606	-904.569	-2.804878	1.829268	0.3658537	12	54	527	0.04982264	0.6981719	0.7125462	0.04849391
5	100	1555487723	10.431	105.835	-916.281	-3.170732	2.560976	0.3658537	12	55	527	0.04911233	0.6993622	0.711417	0.04864651
5	100	1555487723	0	112.057	-913.109	-3.170732	1.95122	0.3658537	12	55	529	0.04909534	0.6995453	0.7112339	0.04870754
5	100	1555487723	1.891	114.741	-909.388	-3.292683	2.439024	0.4878049	14	57	525	0.04896587	0.6996368	0.7111423	0.04886013
5	100	1555487723	3.721	118.462	-932.202	-3.170732	2.195122	0.4878049	13	56	524	0.049454	0.6990875	0.7116611	0.04867702
5	100	1555487723	5.063	115.839	-924.577	-3.292683	2.317073	0.4878049	14	55	527	0.04929102	0.6988128	0.7119358	0.04876858
5	100	1555487723	7.869	121.695	-912.621	-3.414634	2.317073	0.2439024	13	55	527	0.04964346	0.6983856	0.7123325	0.04873806
5	100	1555487723	9.211	116.266	-921.466	-3.170732	2.073171	0.2439024	11	54	526	0.04954491	0.6989044	0.7118137	0.04898221
5	100	1555487723	9.638	118.95	-917.684	-2.804878	1.707317	0.3658537	12	55	530	0.04944677	0.6994842	0.7112339	0.04922635
5	100	1555487723	10.492	115.839	-901.885	-2.804878	1.707317	0.2439024	13	56	525	0.0485355	0.700644	0.7101352	0.04950102
5	100	1555487723	10.126	110.166	-901.275	-2.804878	1.829268	0.2439024	14	52	527	0.04819969	0.7014375	0.7093723	0.04953155
5	100	1555487723	-1.464	118.279	-934.154	-2.926829	1.829268	0.4878049	12	54	525	0.04876399	0.700705	0.7100742	0.04928739
5	100	1555487723	2.501	125.965	-904.813	-2.804878	1.829268	0.1219512	14	56	527	0.0493436	0.7002168	0.710471	0.04992829
5	100	1555487723	5.002	105.774	-902.373	-3.414634	2.195122	0.6097561	13	55	525	0.04901819	0.6996673	0.7110813	0.04925688
5	100	1555487723	13.664	114.375	-942.267	-3.170732	2.317073	0.4878049	13	56	526	0.04867775	0.7002777	0.7105014	0.04928739
5	100	1555487723	8.479	123.464	-924.211	-2.926829	1.585366	0.1219512	12	56	526	0.04803741	0.7010406	0.7097689	0.04962309
5	100	1555487723	84.912	8.235	-873.703	-5.365854	5.853659	-20.60976	12	56	528	0.04703811	0.7014069	0.7095248	0.04889065
5	100	1555487723	-237.107	76.799	-890.478	4.512195	-0.7317073	-64.02439	12	55	526	0.04645477	0.6984161	0.7125157	0.04876858
5	100	1555487723	-0.793	153.903	-516.914	-8.414635	9.390244	-13.41463	14	57	526	0.04647465	0.6971954	0.7136753	0.04925688
5	100	1555487723	-75.396	104.127	-764.452	4.512195	-1.829268	21.82927	13	57	525	0.04648363	0.6978362	0.7130649	0.04901272
5	100	1555487723	162.748	127.246	-924.15	3.170732	14.5122	-36.46342	16	59	530	0.04607407	0.6962187	0.7146519	0.04928739
5	100	1555487723	-78.751	87.169	-996.313	-13.53659	7.073171	-35.97561	13	60	525	0.04662063	0.6936552	0.7170629	0.04989776
5	100	1555487724	124.318	124.196	-874.862	-0.8536586	7.439024	-25.36585	14	59	527	0.04612901	0.6922818	0.7184057	0.05011139
5	100	1555487724	-85.766	111.752	-942.145	-5.731708	5.243903	-26.34146	14	60	526	0.04596397	0.690115	0.720481	0.05035554
5	100	1555487724	49.715	86.315	-875.716	-2.195122	0.4878049	1.097561	15	63	528	0.045399	0.6911528	0.7195044	0.05059969
5	100	1555487724	-1.342	97.966	-901.763	-2.439024	-1.707317	17.43902	15	62	528	0.04524249	0.6920987	0.7186193	0.05038605
5	100	1555487724	91.439	119.072	-914.085	-3.292683	-0.2439024	11.21951	17	59	530	0.04537668	0.6930144	0.7177343	0.05029451
5	100	1555487724	-54.107	29.829	-943.975	-4.390244	-1.341463	3.170732	15	62	527	0.04489268	0.6893521	0.7215796	0.0458388
5	100	1555487724	77.47	44.713	-909.998	-4.268293	0.2439024	-0.3658537	15	61	529	0.04547181	0.6896573	0.7212439	0.04596088
5	100	1555487724	159.698	130.845	-898.469	-2.560976	1.829268	-0.6097561	15	61	527	0.0430692	0.7020172	0.7088839	0.05291909
5	100	1555487724	4.148	108.214	-919.758	-2.317073	1.219512	1.219512	17	59	527	0.04352008	0.700766	0.7101047	0.0527665
5	100	1555487724	-5.917	64.172	-923.479	-1.707317	-1.829268	12.68293	15	60	527	0.04403542	0.7009492	0.7099216	0.05236977
5	100	1555487724	141.886	35.441	-1056.947	-3.04878	3.658537	21.21951	13	61	527	0.04398463	0.7019867	0.7089145	0.05215613
5	100	1555487724	66.185	211.06	-561.993	40.36586	-0.8536586	13.53659	15	58	528	0.04311347	0.703299	0.7077242	0.05136265
5	100	1555487724	-86.254	172.02	-673.074	180.6098	-30.85366	24.26829	15	64	530	0.03534394	0.7051607	0.7069613	0.04129154
5	100	1555487724	-92.11	-72.834	-1624.552	-67.80488	9.878049	1.585366	17	76	528	0.03177863	0.7058626	0.7067171	0.03604236
5	100	1555487724	2.867	146.156	-436.699	-203.1707	29.02439	2.682927	17	66	530	0.04199786	0.7054048	0.7058321	0.04940947
5	100	1555487724	117.364	375.638	-1331.813	95	-11.21951	-5.365854	15	59	527	0.04027581	0.7044588	0.7069919	0.04773095
5	100	1555487724	-24.949	14.335	-1276.791	-38.29268	5.731708	0.9756098	15	63	528	0.03755007	0.703299	0.7086093	0.04281747
5	100	1555487724	3.599	171.105	-611.403	12.07317	-0.8536586	0.1219512	14	64	529	0.03920719	0.7032075	0.7084567	0.04528947
5	100	1555487724	-28.914	77.714	-1071.587	-7.439024	2.195122	0.3658537	16	64	528	0.03857344	0.701712	0.7101352	0.04266487
5	100	1555487724	5.002	118.096	-861.137	2.195122	0.4878049	0	14	63	527	0.04044785	0.7011933	0.7104404	0.04434339
5	100	1555487724	2.928	111.996	-904.142	-4.512195	2.073171	0.3658537	15	66	529	0.0407415	0.7002472	0.7113864	0.0438551
5	100	1555487724	9.028	103.456	-909.266	-4.512195	1.95122	0.2439024	16	64	529	0.04142196	0.7000641	0.7115085	0.04416028
5	100	1555487724	16.165	105.774	-891.576	-3.414634	1.707317	0.2439024	14	63	530	0.04184217	0.6996978	0.7118136	0.04464858
5	100	1555487724	-2.501	102.48	-921.405	-3.292683	2.073171	0.3658537	14	64	528	0.04277271	0.6981109	0.7133396	0.04425184
5	100	1555487724	-11.834	107.848	-908.107	-2.804878	1.463415	0.1219512	14	65	528	0.04406383	0.6962798	0.7150487	0.04425184
5	100	1555487724	-5.673	107.177	-894.687	-3.170732	1.707317	0.1219512	15	63	528	0.04531884	0.6938993	0.717307	0.04382458
5	100	1555487724	-2.623	106.689	-920.246	-2.682927	1.585366	0.6097561	15	63	530	0.04650478	0.692404	0.7186804	0.04373302
5	100	1555487724	3.538	105.713	-917.074	-2.926829	2.073171	0.1219512	14	64	529	0.04576579	0.6930448	0.7181005	0.04388562
5	100	1555487724	12.749	100.711	-908.839	-2.439024	1.463415	0.3658537	15	64	529	0.04563144	0.6945097	0.7166662	0.04431288
5	100	1555487724	15.738	96.807	-912.987	-2.317073	1.707317	0.1219512	16	65	528	0.04458224	0.6956999	0.7155675	0.04446547
5	100	1555487724	8.479	104.615	-915.305	-2.804878	1.341463	0.3658537	15	64	529	0.043927	0.6967681	0.7145604	0.04458754
5	100	1555487724	-1.891	106.811	-902.617	-2.926829	1.707317	0.1219512	16	64	528	0.04397988	0.6963713	0.7149571	0.04437391
5	100	1555487724	12.932	102.541	-905.545	-2.682927	1.829268	0.2439024	15	63	530	0.04471774	0.6957304	0.715537	0.04434339
5	100	1555487724	7.015	107.726	-922.503	-3.170732	1.95122	0.3658537	15	64	529	0.0445555	0.6952422	0.7160253	0.04428236
