Log Mode	Log Freq	Timestamp	AccX	AccY	AccZ	GyroX	GyroY	GyroZ	MagnX	MagnY	MagnZ	qw	qi	qj	qk
5	100	1555487805	413.824	-254.431	820.572	71.21951	-13.29268	19.14634	-251	144	-456	0.0565764	-0.1541795	0.2485733	-0.9545885
5	100	1555487805	383.263	-147.254	1010.404	24.87805	2.195122	11.70732	-618	152	-247	0.09474512	-0.1932432	0.04702902	-0.9754326
5	100	1555487805	362.95	-128.649	995.764	40	-3.04878	21.09756	-618	152	-248	0.05745402	-0.1939451	0.0455031	-0.9782708
5	100	1555487805	391.925	-135.115	913.78	36.82927	3.780488	25.60976	-618	152	-247	0.04673619	-0.1939146	0.04409925	-0.9789117
5	100	1555487805	404.735	-150.731	890.478	33.29268	11.70732	30.36585	-617	151	-248	0.04218479	-0.1933348	0.04309214	-0.9792779
5	100	1555487805	445.361	-146.583	810.08	21.21951	23.04878	33.41463	-617	150	-248	0.03969294	-0.1922056	0.0428785	-0.9796137
5	100	1555487805	496.296	-139.141	815.265	4.756098	31.34146	33.04878	-617	152	-249	0.03880377	-0.1906186	0.04379406	-0.9799188
5	100	1555487805	654.164	-82.167	823.622	-0.7317073	31.46342	26.70732	-617	154	-251	0.03688867	-0.1892758	0.04510636	-0.9801935
5	100	1555487805	719.678	-85.461	777.384	3.04878	31.95122	17.19512	-615	154	-254	0.03591773	-0.1881771	0.0458388	-0.9804071
5	100	1555487805	679.54	-107.36	828.258	12.07317	31.70732	10.12195	-614	156	-255	0.03356024	-0.1873531	0.04577776	-0.9806513
5	100	1555487805	591.578	-111.508	863.15	22.43903	31.95122	10.48781	-610	158	-259	0.03306101	-0.1866817	0.04495376	-0.9808344
5	100	1555487805	483.669	-93.208	897.188	33.90244	27.31707	14.14634	-610	157	-261	0.03171856	-0.186285	0.04354991	-0.9810175
5	100	1555487805	403.21	-93.757	910.608	35.2439	13.90244	16.82927	-606	155	-262	0.03249914	-0.1866817	0.04193243	-0.980987
5	100	1555487805	327.021	-118.035	897.798	21.21951	6.95122	20.4878	-606	154	-263	0.03210519	-0.1878109	0.04147466	-0.9808038
5	100	1555488199	316.834	-98.759	896.761	8.902439	11.09756	25.60976	-605	153	-263	0.03266014	-0.1886654	0.0422071	-0.9805902
5	100	1555488199	383.385	-74.359	909.754	4.756098	10.97561	26.58537	-606	154	-263	0.03223766	-0.1891232	0.04330577	-0.9804682
5	100	1555488199	436.394	-72.468	884.744	3.414634	8.170732	28.65854	-604	153	-263	0.03245969	-0.189642	0.04431288	-0.9803156
5	100	1555488199	474.458	-51.545	924.15	-0.3658537	2.926829	24.63415	-603	157	-266	0.03231153	-0.1903745	0.04531999	-0.9801325
5	100	1555488199	543.022	-41.114	913.353	-2.560976	3.414634	19.7561	-604	158	-265	0.03293366	-0.191168	0.04614399	-0.9799188
5	100	1555488199	521.55	-54.412	914.024	-6.097561	6.097561	17.19512	-604	160	-264	0.03217936	-0.1915647	0.04696799	-0.9798273
5	100	1555488199	517.524	-39.284	949.16	-6.219512	8.414635	13.04878	-604	161	-264	0.03091538	-0.1917478	0.04770043	-0.9797968
5	100	1555488199	484.828	-40.504	948.916	-5.853659	13.04878	9.02439	-603	163	-266	0.03017582	-0.1915952	0.04815821	-0.9798273
5	100	1555488199	428.464	-40.687	974.78	1.463415	12.56098	7.073171	-603	164	-266	0.02983714	-0.1913205	0.04821924	-0.9798883
5	100	1555488199	403.149	-33.062	950.624	4.512195	13.65854	6.097561	-601	165	-267	0.02871949	-0.1911374	0.04776147	-0.9799799
5	100	1555488199	389.241	-51.484	934.337	5.243903	18.17073	6.95122	-599	164	-269	0.02904042	-0.1907102	0.04739524	-0.9800714
5	100	1555488199	357.582	-49.654	933.727	6.95122	22.07317	12.19512	-600	165	-267	0.02843164	-0.1900998	0.04705954	-0.980224
5	100	1555488199	331.413	-53.619	935.191	7.804878	27.80488	18.78049	-597	164	-272	0.02827186	-0.1892453	0.04678487	-0.9804071
5	100	1555488199	327.692	-49.227	920.002	9.02439	36.46342	25.60976	-597	165	-271	0.02929179	-0.1880245	0.04660176	-0.9806207
5	100	1555488199	326.533	-56.974	954.162	15.12195	42.68293	30	-596	165	-275	0.03050488	-0.1864681	0.04629658	-0.9808954
5	100	1555488199	328.668	-53.192	949.526	20.36585	50.12195	30.48781	-593	169	-276	0.03188443	-0.1847896	0.04562517	-0.9812006
5	100	1555488199	343.491	-41.236	964.166	27.07317	58.29268	29.63415	-591	168	-283	0.03276218	-0.1828974	0.04474014	-0.9815668
5	100	1555488199	370.514	-25.132	976.122	32.92683	72.19512	21.58537	-589	168	-285	0.0329626	-0.1807001	0.04345836	-0.9820246
5	100	1555488199	361.12	-32.513	995.032	35.60976	80.85366	18.53659	-583	168	-287	0.03195259	-0.1781671	0.04223762	-0.9825739
5	100	1555488199	349.042	-49.41	973.499	40.4878	86.09756	15.73171	-581	168	-294	0.03207175	-0.1757561	0.04086429	-0.9830622
5	100	1555488199	359.595	-64.05	969.717	38.04878	88.53659	9.268293	-574	166	-298	0.03125858	-0.1735588	0.03985718	-0.98352
5	100	1555488199	353.617	-78.751	963.434	36.09756	83.04878	1.95122	-569	164	-305	0.03075203	-0.1720939	0.03906369	-0.9838252
5	100	1555488199	358.924	-81.191	959.469	34.63415	75	-2.804878	-565	161	-310	0.02973007	-0.1715445	0.0384228	-0.9839778
5	100	1555488199	365.146	-88.938	935.191	28.78049	69.87805	-6.585366	-559	159	-315	0.02806662	-0.1716971	0.03820917	-0.9840083
5	100	1555488199	373.93	-66.124	937.692	27.92683	57.43903	-12.31707	-555	157	-318	0.02689539	-0.1725211	0.03848384	-0.9838862
5	100	1555488199	364.414	-77.165	934.398	65.97561	13.29268	-20.2439	-552	156	-322	0.02594906	-0.1745353	0.03622547	-0.9836421
5	100	1555488199	387.899	-62.403	917.135	76.58537	-5	-14.14634	-547	152	-325	0.02515478	-0.179693	0.03295999	-0.9828486
5	100	1555488199	248.514	-81.984	973.804	60.12195	4.512195	-15.85366	-549	145	-325	0.02533422	-0.1831111	0.03125095	-0.9822688
5	100	1555488199	167.933	-151.158	1072.258	61.95122	12.56098	-22.43903	-550	141	-324	0.02455526	-0.1850032	0.03030488	-0.9819636
5	100	1555488199	126.209	-223.565	1174.616	81.82927	12.92683	-14.39024	-549	136	-325	0.02385218	-0.1863155	0.02871792	-0.9817805
5	100	1555488199	76.86	-223.016	1111.725	92.56097	24.5122	-2.195122	-549	129	-323	0.02460376	-0.1867428	0.02624592	-0.98175
5	100	1555488199	161.345	-133.163	1083.36	112.561	61.82927	7.317073	-547	124	-325	0.02642251	-0.1850642	0.02368236	-0.9820856
5	100	1555488199	224.724	-132.126	939.461	102.8049	79.63415	-5.97561	-547	117	-324	0.02710621	-0.1813715	0.0209357	-0.9828181
5	100	1555488199	254.126	-109.861	901.214	74.87805	71.95122	-14.14634	-542	109	-329	0.02760625	-0.1784112	0.01989807	-0.9833674
5	100	1555488199	301.767	-41.968	1030.778	77.68293	72.43903	-12.19512	-536	102	-332	0.02642026	-0.1769768	0.02072207	-0.9836421
5	100	1555488199	335.988	-49.166	1047.248	75.73171	84.2683	-14.5122	-533	95	-336	0.02649123	-0.1752068	0.02117985	-0.9839473
5	100	1555488199	351.482	-52.46	1010.587	69.02439	103.0488	-15.12195	-526	91	-337	0.02544924	-0.1726737	0.02197333	-0.984405
5	100	1555488199	335.195	-66.612	907.314	68.90244	115.8537	-15.2439	-523	85	-342	0.02590308	-0.1678823	0.01696829	-0.9853206
5	100	1555488199	252.052	-91.988	815.936	70.12196	105.7317	-11.21951	-512	79	-348	0.02429782	-0.1603748	0.015656	-0.9866329
5	100	1555488199	202.581	-58.804	867.054	70.2439	96.21951	-8.04878	-504	74	-352	0.02346927	-0.1473434	0.01397748	-0.9887081
5	100	1555488199	185.684	-29.402	852.353	59.02439	95.97561	-10	-496	70	-354	0.02329849	-0.1323283	0.007263405	-0.9909055
5	100	1555488199	152.012	-40.138	1070.733	72.80488	81.58537	-19.02439	-491	64	-358	0.0219129	-0.1167333	0.001922666	-0.9929197
5	100	1555488199	111.752	-23.424	1063.84	106.3415	42.92683	-16.58537	-486	59	-361	0.02084938	-0.1004059	-0.003936888	-0.9947203
5	100	1555488199	132.858	13.786	994.056	131.7073	31.09756	-6.585366	-481	52	-359	0.02177784	-0.08813746	-0.01495407	-0.9957579
5	100	1555488199	223.809	58.926	844.179	96.34147	50.4878	-9.634147	-479	43	-358	0.0223492	-0.08899198	-0.02893155	-0.9953612
5	100	1555488199	388.448	179.645	975.024	64.87805	118.7805	-8.902439	-475	35	-356	0.02205524	-0.1015351	-0.04779199	-0.9934385
5	100	1555488199	523.99	225.517	966.484	64.14634	164.2683	2.195122	-468	29	-357	0.02382717	-0.1190832	-0.06802576	-0.9902646
5	100	1555488199	656.421	251.015	839.238	44.7561	168.4146	-4.634147	-457	25	-364	0.02360349	-0.1489914	-0.08746605	-0.9846797
5	100	1555488199	648.552	274.012	788.974	52.19512	175.6098	-27.07317	-447	23	-370	0.02051798	-0.1814936	-0.1045869	-0.9775994
5	100	1555488199	526.796	316.529	797.209	71.09756	171.7073	-40.2439	-433	17	-374	0.01950529	-0.1969054	-0.1268654	-0.971984
5	100	1555488199	353.739	386.374	825.025	112.3171	183.9025	-24.7561	-422	14	-377	0.02277454	-0.1891537	-0.1537217	-0.969573
5	100	1555488199	197.579	543.571	749.385	104.3902	183.1707	5.853659	-406	7	-381	0.03368079	-0.1595203	-0.1928465	-0.9675893
5	100	1555488199	125.599	739.137	577.304	55.85366	165.6098	20.60976	-395	-3	-381	0.04606307	-0.1233558	-0.249855	-0.9592883
5	100	1555488199	245.464	797.941	428.769	14.7561	140.4878	-13.78049	-381	-9	-384	0.05289576	-0.1066012	-0.3146763	-0.9417096
5	100	1555488199	244.488	894.382	503.86	-33.53659	96.82927	-64.63415	-371	-10	-387	0.0532831	-0.09750663	-0.3690909	-0.9227271
5	100	1555488199	218.258	1013.942	1122.278	5.365854	38.17073	-99.63415	-359	-7	-388	0.04955393	-0.08737449	-0.384167	-0.9177831
5	100	1555488199	-443.226	364.536	-627.263	11.21951	-2.317073	-78.17073	-352	-8	-396	0.02905376	-0.06225776	-0.4203619	-0.9047517
5	100	1555488199	-653.005	1026.264	489.708	-377.6829	127.1951	95.85366	-351	-14	-389	0.01125433	-0.03265481	0.4689779	0.8825343
5	100	1555488199	-373.137	744.017	1843.42	-375.4878	123.4146	71.58537	-342	9	-398	0.01534206	0.07184057	-0.4013794	-0.9129612
5	100	1555488199	-702.781	688.934	1421.422	-114.8781	-74.87805	83.17073	-331	40	-414	0.02741885	0.09082308	-0.3399762	-0.9356365
5	100	1555488199	-805.627	801.296	747.86	-92.92683	-126.7073	115.3659	-329	60	-416	0.03449648	0.1332743	-0.3231605	-0.9362773
5	100	1555488199	-906.582	860.527	842.288	-162.6829	-55.2439	150	-342	69	-415	0.04373321	0.1773125	-0.319895	-0.9296854
5	100	1555488199	-964.105	919.88	876.936	-146.7073	-77.56097	176.4634	-350	81	-416	0.05668481	0.2121952	-0.3102817	-0.9249245
5	100	1555488199	-130.54	520.879	-391.681	-611.0976	-18.53659	112.561	-355	97	-417	0.08287127	0.3198645	-0.3482772	-0.877224
5	100	1555488199	-553.514	738.588	561.627	-597.8049	174.6342	147.1951	-363	126	-420	0.1131739	0.3400983	-0.3233741	-0.8757591
5	100	1555488199	-528.077	562.542	1136.064	-563.5366	141.0976	54.02439	-350	179	-426	0.142981	0.3244117	-0.2700583	-0.8951994
5	100	1555488199	-748.47	1024.617	1645.17	-204.2683	-63.41463	72.19512	-332	229	-427	0.1587719	0.2940153	-0.2327647	-0.9133275
5	100	1555488199	-936.228	828.868	836.676	-39.87805	-33.90244	149.5122	-330	258	-422	0.1673769	0.2972503	-0.2379833	-0.9093906
5	100	1555488199	-1016.077	793	971.73	-2.560976	37.56098	169.3902	-332	268	-422	0.1777305	0.3217872	-0.2328562	-0.9003571
5	100	1555488199	-964.593	662.216	993.751	30	22.80488	168.2927	-330	273	-422	0.1892929	0.3390912	-0.2235786	-0.8939787
5	100	1555488199	-706.319	538.874	1111.908	60.97561	15.48781	154.5122	-323	275	-433	0.201313	0.3409833	-0.2157964	-0.8925443
5	100	1555488199	-444.019	331.84	964.837	79.2683	16.09756	111.0976	-320	274	-425	0.2127722	0.319895	-0.2041993	-0.9003876
5	100	1555488199	-355.935	16.958	772.382	-9.512196	46.21951	99.7561	-316	269	-427	0.2273433	0.3051546	-0.166448	-0.9096652
5	100	1555488199	-237.351	-158.661	906.094	-34.2683	14.5122	128.2927	-312	269	-428	0.2499788	0.2737205	-0.1105991	-0.9221473
5	100	1555488199	-16.104	-241.865	771.894	-14.26829	-70.60976	99.2683	-307	274	-429	0.2732252	0.2141179	-0.05682547	-0.9360942
5	100	1555488199	152.866	-328.241	425.658	20.2439	-212.3171	60.73171	-306	278	-430	0.2911686	0.1251564	-0.01034577	-0.9483932
5	100	1555488199	259.372	-247.355	285.419	-102.9268	-122.6829	22.56098	-319	279	-425	0.3035944	-0.02630696	0.04544206	-0.9513535
5	100	1555488199	70.333	-385.642	857.416	-117.1951	-88.78049	114.5122	-331	283	-424	0.3093017	-0.07599109	0.07846308	-0.94467
5	100	1555488199	13.725	-588.406	1114.348	-76.46342	-142.439	178.6585	-338	293	-418	0.3195439	-0.08487198	0.1114231	-0.9371624
5	100	1555488199	12.932	-548.634	945.134	-18.17073	-35.85366	58.41463	-343	306	-415	0.3238105	-0.1031526	0.1556139	-0.9275185
5	100	1555488199	-39.65	-257.298	1018.7	-23.65854	-18.90244	32.68293	-348	307	-412	0.3252474	-0.09094516	0.1564074	-0.9281594
5	100	1555488199	-107.299	-314.211	877.241	-108.5366	-8.780488	64.87805	-348	311	-411	0.3268452	-0.06601153	0.1581469	-0.9294107
5	100	1555488199	-147.62	-356.728	889.136	-97.19512	24.7561	58.53659	-349	319	-410	0.3280045	-0.04980621	0.1733146	-0.9273049
5	100	1555488199	-291.763	-306.342	893.162	-96.34147	25.97561	74.39024	-344	330	-409	0.3286833	-0.02090518	0.1850337	-0.9259011
5	100	1555488199	-326.899	-342.393	922.015	-94.02439	2.804878	74.5122	-340	338	-408	0.330162	0.009186071	0.1974242	-0.9230018
5	100	1555488199	-230.336	-465.918	983.32	-98.78049	-37.07317	65.36585	-338	347	-405	0.3336866	0.01992859	0.2080752	-0.9192175
5	100	1555488199	-1.708	-602.192	1108.614	-95.73171	-80.2439	60.73171	-338	356	-399	0.3423396	0.0008239998	0.2202826	-0.9133885
5	100	1555488199	201.422	-735.538	1062.01	-63.41463	-88.78049	43.29268	-341	366	-397	0.3480752	-0.007446516	0.2230293	-0.9105197
5	100	1555488199	193.553	-814.106	895.724	-77.92683	-76.95122	27.92683	-346	372	-392	0.3526596	-0.01562548	0.2257149	-0.9079867
5	100	1555488199	61.976	-692.716	762.744	-107.0732	-73.53659	13.17073	-351	375	-386	0.355184	-0.02398755	0.2304147	-0.9056368
5	100	1555488199	2.257	-640.256	735.599	-127.8049	-76.70732	-8.292683	-354	384	-381	0.3565103	-0.03369243	0.2374645	-0.9029816
5	100	1555488199	-4.514	-536.678	842.593	-133.0488	-78.41463	-17.80488	-359	393	-375	0.3564477	-0.04434339	0.2451857	-0.9004791
5	100	1555488199	5.551	-478.728	944.036	-124.1463	-88.04878	-27.43903	-364	402	-368	0.3557864	-0.05536058	0.2524186	-0.8981292
5	100	1555488199	115.046	-411.689	1183.095	-84.2683	-109.7561	-35.60976	-372	411	-359	0.3551899	-0.06729332	0.257149	-0.8962066
5	100	1555488199	379.664	-445.849	1365.668	-23.04878	-112.561	-48.78049	-380	415	-352	0.3540507	-0.07876828	0.2566302	-0.8958709
5	100	1555488199	182.451	-484.584	1215.974	-3.780488	-76.21951	-60.60976	-389	418	-348	0.351851	-0.08764916	0.2538835	-0.8966948
5	100	1555488199	70.76	-490.867	1072.319	-3.414634	-28.29268	-76.58537	-398	417	-341	0.347377	-0.09305093	0.2517472	-0.8984954
5	100	1555488199	-5.49	-449.997	978.562	-3.658537	11.21951	-82.19512	-405	412	-342	0.340672	-0.09549242	0.2508316	-0.901059
5	100	1555488200	-31.049	-415.837	914.207	-4.390244	41.58537	-55.4878	-410	411	-341	0.334554	-0.09482101	0.2511978	-0.9033173
5	100	1555488200	-28.182	-346.419	872.91	8.536586	50	-13.29268	-411	409	-343	0.3310424	-0.09158605	0.2517777	-0.9047822
5	100	1555488200	-129.32	-255.529	911.584	21.70732	29.39025	17.43902	-410	408	-345	0.3308941	-0.08801538	0.251381	-0.9053011
5	100	1555488200	-183.793	-207.217	970.449	39.39024	29.14634	36.46342	-407	406	-347	0.3328939	-0.08435316	0.2495499	-0.9054232
5	100	1555488200	-276.452	-224.48	936.838	53.41463	33.17073	61.95122	-405	404	-349	0.3366339	-0.07931761	0.2468337	-0.90524
5	100	1555488200	-270.169	-218.075	1074.21	74.7561	42.92683	68.41463	-399	403	-353	0.3415544	-0.07293924	0.2430189	-0.9049653
5	100	1555488200	-155.123	-338.672	1205.482	95.73171	49.14634	51.82927	-396	400	-359	0.3458515	-0.06537065	0.2375561	-0.9053621
5	100	1555488200	137.006	-597.007	1244.278	101.7073	65.60976	13.78049	-390	397	-364	0.3476359	-0.05722221	0.2311472	-0.906888
5	100	1555488200	432.734	-646.539	1168.394	79.63415	87.68293	-20.60976	-384	390	-367	0.3459867	-0.04840236	0.2264779	-0.9092075
5	100	1555488200	467.199	-627.141	1019.859	48.78049	100.4878	-44.5122	-380	384	-376	0.3413225	-0.03967406	0.2237007	-0.9120762
5	100	1555488200	345.504	-568.093	1002.291	24.14634	110.7317	-59.7561	-376	378	-383	0.3351077	-0.0311594	0.2238533	-0.9146702
5	100	1555488200	160.125	-444.751	974.597	8.902439	108.2927	-62.31707	-372	376	-386	0.3279836	-0.02319407	0.2255013	-0.9170812
5	100	1555488200	-231.19	-276.086	742.248	-14.02439	62.92683	-29.39025	-365	373	-392	0.3224903	-0.017304	0.227485	-0.9186682
5	100	1555488200	-252.723	-120.109	1023.031	4.268293	28.41463	-24.02439	-363	371	-392	0.3198473	-0.01532029	0.2290109	-0.9192481
5	100	1555488200	-105.347	-152.866	1226.588	46.21951	18.78049	-7.317073	-361	373	-395	0.3182839	-0.01309244	0.2269051	-0.9203467
5	100	1555488200	-155.733	-198.921	1245.498	73.53659	-0.9756098	3.780488	-360	370	-396	0.3181434	-0.010712	0.221717	-0.9216895
5	100	1555488200	-255.712	-221.247	1200.236	42.92683	-18.65854	21.34146	-362	363	-398	0.3196371	-0.009918516	0.2164983	-0.9224219
5	100	1555488200	-258.579	-233.569	1210.728	7.439024	-24.7561	33.53659	-361	359	-399	0.3224537	-0.01077303	0.2140873	-0.9219947
5	100	1555488200	-214.293	-257.603	1113.006	-14.87805	-24.87805	32.56098	-363	358	-399	0.3255633	-0.01236	0.2136296	-0.9209876
5	100	1555488200	-301.157	-431.636	893.711	-63.04878	-41.46342	14.5122	-363	361	-399	0.3285811	-0.01596118	0.2158574	-0.9193396
5	100	1555488200	25.071	-399.367	992.409	-87.19512	-25.97561	-0.1219512	-366	364	-397	0.3292569	-0.02069155	0.2217475	-0.9176
5	100	1555488200	103.09	-340.502	1051.945	-61.21951	-46.58537	-10.73171	-366	371	-393	0.3293074	-0.02603229	0.2258675	-0.9164403
5	100	1555488200	-89.731	-256.139	998.753	-50.60976	-29.39025	-7.317073	-370	374	-388	0.3292521	-0.03100681	0.2290109	-0.9155248
5	100	1555488200	-66.002	-195.688	1068.354	-16.46342	-0.6097561	-5.487805	-374	379	-386	0.3289827	-0.03305155	0.2309336	-0.915067
5	100	1555488200	-38.857	-272.548	947.818	4.634147	35.4878	-0.9756098	-374	379	-382	0.3284425	-0.03173925	0.2322459	-0.9149754
5	100	1555488200	2.623	-262.849	927.261	34.14634	61.95122	4.634147	-373	380	-384	0.3275999	-0.02691733	0.2318796	-0.9155248
5	100	1555488200	81.374	-232.227	928.908	64.5122	68.78049	10.36585	-368	378	-388	0.3270565	-0.02008118	0.2297128	-0.9164403
5	100	1555488200	61.854	-317.688	927.078	86.09756	75.60976	9.512196	-362	374	-393	0.3265931	-0.01193274	0.2250435	-0.9179052
5	100	1555488200	125.965	-237.29	764.818	105.4878	87.31708	20.73171	-357	368	-399	0.3256691	-0.002136296	0.2188787	-0.9197974
5	100	1555488200	-62.22	-327.265	701.622	52.56098	60.73171	16.21951	-353	361	-404	0.3260505	0.005462813	0.2148808	-0.9205908
5	100	1555488200	183.427	-266.204	915.671	59.39024	43.17073	19.02439	-348	355	-406	0.326555	0.01156652	0.21189	-0.9210486
5	100	1555488200	122.549	-296.46	923.357	73.78049	12.80488	8.536586	-343	353	-411	0.3269981	0.01556444	0.2063662	-0.9220862
5	100	1555488200	75.579	-273.402	922.93	53.17073	8.170732	2.317073	-342	347	-412	0.3271259	0.01812799	0.2013916	-0.9230934
5	100	1555488200	14.884	-223.321	921.832	48.65854	3.658537	-2.073171	-341	342	-416	0.3269857	0.01989807	0.1972106	-0.9240089
5	100	1555488200	-28.487	-180.682	951.844	48.04878	10.60976	-7.926829	-342	339	-416	0.3263215	0.02166814	0.1933653	-0.925016
5	100	1555488200	-78.385	-131.943	961.543	52.92683	22.68293	-13.04878	-340	334	-420	0.3250317	0.02429273	0.1894894	-0.9262062
5	100	1555488200	-139.507	-88.816	966.484	53.41463	43.29268	-16.09756	-340	329	-421	0.3231272	0.02829066	0.1858882	-0.927488
5	100	1555488200	-173.911	-63.928	976.366	53.90244	65.48781	-18.65854	-337	324	-422	0.3205902	0.03402814	0.18305	-0.9287393
5	100	1555488200	-193.004	-15.494	957.273	53.90244	82.68293	-18.53659	-334	323	-424	0.3178194	0.04129154	0.1806391	-0.9298685
5	100	1555488200	-269.071	31.964	909.876	49.7561	95.12196	-15.48781	-329	315	-428	0.314618	0.04989776	0.1787164	-0.9309061
5	100	1555488200	-287.615	37.515	879.01	47.43903	101.3415	-14.7561	-323	311	-432	0.3114451	0.05905332	0.1773431	-0.9316996
5	100	1555488200	-323.239	52.643	833.443	35.97561	99.2683	-9.756098	-314	307	-436	0.3086672	0.06817835	0.1765191	-0.9321573
5	100	1555488200	-338.489	74.481	811.91	28.17073	81.70732	-0.8536586	-307	304	-444	0.3067312	0.07626575	0.1759392	-0.9322794
5	100	1555488200	-334.585	92.842	812.276	23.53659	59.63415	9.634147	-300	301	-440	0.3061936	0.08249153	0.1753594	-0.9320353
5	100	1555488200	-359.534	142.008	833.626	19.5122	42.19512	18.78049	-295	299	-439	0.3064765	0.08719138	0.1745353	-0.9316691
5	100	1555488200	-368.562	185.501	892.003	20.36585	30.36585	25.2439	-290	298	-444	0.3076435	0.09082308	0.1735588	-0.9311197
5	100	1555488200	-357.826	206.668	919.636	25.73171	24.63415	27.92683	-288	297	-444	0.3092248	0.09396649	0.1718497	-0.9306009
5	100	1555488200	-350.689	192.333	1016.321	22.43903	22.19512	27.07317	-285	296	-444	0.3108718	0.09692679	0.169866	-0.9301126
5	100	1555488200	-291.946	191.174	1056.459	18.78049	20.4878	24.14634	-284	293	-444	0.3123752	0.09945982	0.1683096	-0.9296243
5	100	1555488200	-280.234	209.352	1034.743	13.04878	24.02439	22.68293	-280	292	-448	0.3137931	0.1019013	0.1672414	-0.929075
5	100	1555488200	-298.351	205.204	988.688	8.536586	33.41463	20.85366	-279	291	-446	0.3150564	0.1048311	0.1667837	-0.9284036
5	100	1555488200	-306.769	226.188	903.898	4.390244	39.87805	20.4878	-275	290	-448	0.3159814	0.1082797	0.1669057	-0.9276711
5	100	1555488200	-328.363	246.684	890.905	1.463415	41.34146	22.07317	-272	289	-450	0.3170744	0.1119419	0.167333	-0.9267861
5	100	1555488200	-344.284	264.801	897.676	-6.097561	37.19512	27.43903	-269	290	-449	0.3184688	0.1153294	0.1681265	-0.9257485
5	100	1555488200	-353.983	258.701	905.057	-12.19512	31.34146	34.87805	-265	291	-450	0.3206139	0.1181372	0.1693167	-0.9244362
5	100	1555488200	-338.184	255.285	895.48	-17.31707	26.09756	44.2683	-262	290	-452	0.3235581	0.1205176	0.17069	-0.9228492
5	100	1555488200	-320.311	226.31	891.149	-23.78049	19.7561	54.2683	-259	294	-456	0.3275093	0.1224097	0.1721854	-0.9209266
5	100	1555488200	-283.345	191.845	946.476	-35.2439	12.92683	60.60976	-257	296	-451	0.3322202	0.1236	0.1741997	-0.9186987
5	100	1555488200	-206.241	153.72	1009.672	-34.39024	6.341464	63.90244	-252	298	-448	0.3374663	0.1242103	0.1763665	-0.9162877
5	100	1555488200	-163.297	115.168	1018.944	-28.29268	-5.243903	65.48781	-251	301	-449	0.3429489	0.1241493	0.1778619	-0.9139683
5	100	1555488200	-160.979	71.919	999.119	-25.2439	-5.487805	61.34146	-250	305	-448	0.3483151	0.1237831	0.1788079	-0.9118015
5	100	1555488200	-190.503	55.693	1005.585	-24.7561	0	57.68293	-249	307	-450	0.3532996	0.1236915	0.1798151	-0.9096957
5	100	1555488200	-206.546	60.817	1015.65	-22.80488	5.243903	53.53659	-247	310	-449	0.3578352	0.1240272	0.1809442	-0.907651
5	100	1555488200	-230.702	85.583	1027.118	-21.21951	10.60976	49.87805	-245	312	-450	0.3619838	0.1247902	0.1821039	-0.9056673
5	100	1555488200	-270.108	115.046	1020.408	-23.29268	12.80488	50.12195	-244	314	-446	0.3658833	0.1258278	0.1834468	-0.9036836
5	100	1555488200	-293.959	136.762	1004.853	-30.60976	12.56098	53.78049	-242	317	-449	0.3700873	0.1267434	0.1851863	-0.9014863
5	100	1555488200	-310.246	139.202	975.878	-34.63415	9.878049	59.2683	-239	319	-448	0.3746447	0.1273843	0.1872921	-0.8990753
5	100	1555488200	-317.627	136.457	935.74	-36.82927	5.97561	64.7561	-236	323	-447	0.379778	0.127781	0.1893979	-0.8964202
5	100	1555488200	-312.747	106.262	922.808	-33.65854	-2.195122	71.70732	-234	325	-447	0.385536	0.127781	0.191168	-0.893582
5	100	1555488200	-312.259	71.248	927.566	-33.90244	-8.658537	76.95122	-232	330	-445	0.391734	0.1274148	0.1924802	-0.8906522
5	100	1555488200	-265.716	27.389	980.331	-39.7561	-16.34146	81.09756	-230	332	-447	0.3985476	0.1264382	0.1937925	-0.8874782
5	100	1555488200	-188.673	-41.846	1014.613	-48.29268	-26.21951	80.85366	-228	335	-447	0.4056077	0.1244545	0.195349	-0.8842128
5	100	1555488200	-111.63	-96.563	1021.506	-48.04878	-31.58537	74.39024	-229	339	-444	0.4125811	0.1216773	0.1969665	-0.8810083
5	100	1555488200	-87.596	-135.054	1007.476	-41.95122	-29.87805	65.73171	-227	343	-444	0.4189119	0.1188391	0.1982788	-0.8781091
5	100	1555488200	-92.72	-145.058	983.991	-35.97561	-21.21951	53.04878	-228	346	-443	0.424163	0.1164891	0.1994385	-0.8756371
5	100	1555488200	-138.348	-108.031	983.503	-27.56098	-9.878049	41.09756	-228	353	-442	0.4281813	0.1149632	0.2005676	-0.8736228
5	100	1555488200	-178.242	-71.858	980.026	-20.2439	-1.95122	34.2683	-227	353	-442	0.4312346	0.1143529	0.2015442	-0.8719748
5	100	1555488200	-231.922	-41.663	945.012	-17.19512	0.4878049	33.41463	-227	354	-442	0.433902	0.1142003	0.2023682	-0.8704795
5	100	1555488200	-278.465	-48.861	902.068	-16.95122	1.829268	36.21951	-227	356	-441	0.4367153	0.1142613	0.2031007	-0.8688925
5	100	1555488200	-276.696	-67.832	905.972	-19.26829	0	41.21951	-225	356	-443	0.4398127	0.1142918	0.2038331	-0.8671529
5	100	1555488200	-243.268	-98.881	915.488	-21.21951	-3.536585	43.29268	-224	359	-441	0.4432193	0.1141087	0.2045961	-0.8652608
5	100	1555488200	-175.68	-149.633	937.936	-29.7561	-7.439024	42.92683	-221	361	-441	0.4468631	0.1134068	0.2056947	-0.863216
5	100	1555488200	-81.679	-201.727	930.494	-32.68293	-15.36585	37.92683	-220	362	-438	0.4504094	0.1119419	0.206946	-0.8612629
5	100	1555488200	-27.206	-275.11	909.266	-38.53659	-23.29268	32.07317	-220	367	-439	0.4536934	0.109592	0.2082583	-0.8595234
5	100	1555488200	-25.742	-270.474	955.199	-33.78049	-28.29268	26.09756	-221	371	-441	0.4566424	0.1066317	0.2093875	-0.8580584
5	100	1555488200	-69.479	-271.877	1013.759	-27.31707	-17.56098	15.97561	-222	371	-439	0.4588278	0.1040681	0.2102725	-0.8569903
5	100	1555488200	-110.715	-229.665	1052.799	-19.14634	-0.8536586	6.95122	-224	374	-438	0.4599064	0.1027863	0.2112796	-0.8563188
5	100	1555488200	-167.628	-174.887	1084.946	-8.780488	15	0.3658537	-221	376	-436	0.4600339	0.103	0.2122562	-0.8559831
5	100	1555488200	-250.832	-158.722	988.139	-10.2439	28.17073	-0.8536586	-223	377	-436	0.4596064	0.1043428	0.2136296	-0.8557085
5	100	1555488200	-330.01	-119.743	950.868	-12.07317	35.12195	1.95122	-219	377	-436	0.4590346	0.1063265	0.2155828	-0.8552812
5	100	1555488200	-400.099	-100.467	869.189	-6.829268	32.92683	6.707317	-217	378	-438	0.4588369	0.1085849	0.2172918	-0.8546709
5	100	1555488200	-437.492	-98.698	814.838	-8.170732	29.87805	14.02439	-213	377	-437	0.4590783	0.1107822	0.2187872	-0.8538774
5	100	1555488200	-437.858	-85.034	793	-15.36585	25.2439	23.53659	-212	380	-438	0.4600917	0.1127049	0.2203131	-0.8526872
5	100	1555488200	-426.207	-91.988	800.686	-26.21951	19.39024	30.97561	-208	381	-438	0.461948	0.1139561	0.2222663	-0.8510087
5	100	1555488200	-358.314	-89.731	893.894	-30.12195	9.634147	33.78049	-205	384	-438	0.4644159	0.1144139	0.2244636	-0.849025
5	100	1555488200	-320.372	-101.443	944.646	-31.95122	2.560976	34.39024	-203	387	-435	0.4671312	0.1141697	0.2263253	-0.8470718
5	100	1555488200	-323.178	-126.636	960.018	-33.78049	0.8536586	31.70732	-200	389	-436	0.4698815	0.1135289	0.2282479	-0.8451186
5	100	1555488200	-347.151	-159.881	927.688	-38.90244	2.926829	27.19512	-200	391	-436	0.4723307	0.1127049	0.2304758	-0.843257
5	100	1555488201	-382.592	-179.096	893.589	-47.68293	3.292683	25.2439	-197	396	-435	0.4745058	0.1116367	0.233314	-0.8413953
5	100	1555488201	-473.543	-200.08	842.105	-63.90244	1.463415	28.78049	-197	399	-433	0.476977	0.1100192	0.2370373	-0.8391675
5	100	1555488201	-524.356	-200.202	840.153	-88.90244	1.097561	36.34146	-194	405	-429	0.4801143	0.1074862	0.2421644	-0.8362377
5	100	1555488201	-537.959	-198.128	841.678	-116.0976	4.390244	47.68293	-193	410	-426	0.4840869	0.1042512	0.2493362	-0.8322397
5	100	1555488201	-567.91	-175.07	836.493	-122.8049	-1.219512	55	-190	421	-423	0.4889084	0.1004059	0.2574236	-0.8274179
5	100	1555488201	-597.739	-213.378	821.731	-134.3902	-2.195122	65.12196	-185	429	-417	0.4944145	0.09610279	0.2658162	-0.8219855
5	100	1555488201	-582.001	-259.189	775.31	-136.9512	-1.829268	71.09756	-184	440	-413	0.5005393	0.09167761	0.2747581	-0.8158208
5	100	1555488201	-556.686	-303.048	806.603	-137.6829	-10.2439	68.04878	-178	449	-405	0.5066829	0.08697775	0.2833949	-0.8095645
5	100	1555488201	-408.883	-363.56	932.629	-145.3659	-27.19512	60.97561	-175	460	-398	0.5127822	0.0807825	0.2918485	-0.8033387
5	100	1555488201	-262.422	-432.978	1031.937	-136.8293	-42.56098	50	-173	469	-392	0.5184669	0.07330546	0.2994171	-0.7976012
5	100	1555488201	-241.743	-426.39	1163.087	-119.0244	-46.58537	37.31707	-173	482	-384	0.5234318	0.06540117	0.3056734	-0.7926573
5	100	1555488201	-343.43	-411.567	1256.539	-88.41463	-28.29268	28.17073	-173	490	-378	0.5271851	0.0590228	0.3105869	-0.7887509
5	100	1555488201	-445.666	-402.539	1224.392	-44.2683	3.536585	20.2439	-175	498	-376	0.5293802	0.05615406	0.3139439	-0.7861568
5	100	1555488201	-526.186	-405.101	1047.675	-25.36585	40.2439	18.65854	-173	503	-370	0.5300963	0.05700858	0.3168432	-0.7844478
5	100	1555488201	-600.301	-455.487	791.658	-35.85366	71.70732	23.65854	-170	504	-371	0.5300069	0.06033509	0.3211768	-0.7824946
5	100	1555488201	-634.888	-473.97	637.816	-59.5122	86.34147	34.7561	-162	508	-369	0.5300339	0.06448561	0.3280435	-0.7792901
5	100	1555488201	-592.005	-458.354	642.635	-59.63415	80.2439	39.7561	-155	512	-364	0.5305793	0.06839198	0.3356121	-0.7753533
5	100	1555488201	-543.51	-445.056	662.094	-57.19512	75.48781	46.21951	-145	516	-360	0.5315904	0.07217628	0.3425703	-0.7712638
5	100	1555488201	-515.328	-440.847	737.002	-47.07317	68.78049	50.73171	-140	520	-355	0.5330605	0.07611316	0.3487655	-0.7670828
5	100	1555488201	-484.767	-432.856	820.206	-37.92683	56.82927	57.80488	-132	521	-352	0.5350778	0.0801416	0.3537095	-0.7629933
5	100	1555488201	-499.346	-410.225	905.789	-26.58537	46.46342	59.14634	-124	524	-350	0.5376812	0.08404797	0.3573717	-0.7590259
5	100	1555488201	-463.783	-403.027	908.229	-18.29268	40.4878	61.21951	-117	524	-346	0.5405361	0.08798486	0.3599963	-0.7553026
5	100	1555488201	-360.327	-446.093	956.602	-16.58537	26.21951	52.43903	-111	524	-346	0.5434159	0.09118931	0.3619495	-0.751915
5	100	1555488201	-264.557	-508.191	930.982	-19.63415	20.85366	39.14634	-106	524	-343	0.5457503	0.09338664	0.363506	-0.7491989
5	100	1555488201	-197.701	-495.991	890.905	-29.26829	16.21951	23.90244	-102	525	-344	0.5474082	0.09427167	0.3654897	-0.74691
5	100	1555488201	-229.055	-448.045	857.111	-34.63415	11.95122	9.02439	-100	526	-341	0.5481795	0.09405804	0.3679312	-0.7451705
5	100	1555488201	-346.175	-398.147	817.034	-41.21951	2.439024	2.804878	-98	529	-340	0.5486759	0.09280679	0.3704642	-0.7437056
5	100	1555488201	-365.451	-346.419	780.556	-45.60976	-1.707317	-4.634147	-98	531	-335	0.5489287	0.09067049	0.3730583	-0.7424848
5	100	1555488201	-364.414	-356.972	721.569	-57.19512	-4.268293	-8.902439	-97	533	-334	0.5489314	0.08774071	0.3760491	-0.7413251
5	100	1555488201	-332.023	-366.122	705.038	-72.07317	-14.87805	-16.21951	-99	538	-330	0.5488828	0.08349864	0.3797723	-0.7399518
5	100	1555488201	-305.854	-367.647	791.658	-88.90244	-27.31707	-21.95122	-101	542	-328	0.548962	0.07742546	0.3838923	-0.7384259
5	100	1555488201	-336.171	-346.724	899.262	-90.2439	-42.07317	-23.90244	-103	547	-321	0.5492268	0.0699179	0.3879818	-0.7368389
5	100	1555488201	-388.204	-592.737	925.858	-85.36585	-52.31707	-48.90244	-107	554	-316	0.5491787	0.06158635	0.3911863	-0.7359233
5	100	1555488201	-339.526	-384.605	1000.095	-77.68293	-58.53659	-42.80488	-114	558	-310	0.5487671	0.05267495	0.3936888	-0.7355877
5	100	1555488201	-322.263	-398.147	912.377	-81.21951	-58.17073	-41.09756	-119	565	-307	0.5483698	0.04367199	0.3957946	-0.7353435
5	100	1555488201	-286.639	-405.528	897.798	-108.9024	-55.36586	-41.58537	-126	569	-302	0.5479177	0.0339671	0.3993957	-0.7342448
5	100	1555488201	-279.807	-442.006	909.754	-130.1219	-59.2683	-44.2683	-131	574	-296	0.5475788	0.0229194	0.4043702	-0.7322001
5	100	1555488201	-265.838	-464.759	905.118	-135.6098	-64.39024	-49.02439	-136	582	-286	0.547012	0.01092563	0.4097415	-0.7299112
5	100	1555488201	-256.322	-480.497	967.094	-131.0976	-72.92683	-55.4878	-145	592	-279	0.5462505	-0.001709037	0.4147771	-0.7277139
5	100	1555488201	-222.162	-516.365	970.205	-119.6341	-79.63415	-58.29268	-152	596	-270	0.5453281	-0.01458785	0.418714	-0.7260048
5	100	1555488201	-234.057	-522.465	957.761	-108.5366	-83.78049	-54.87805	-159	602	-262	0.5446486	-0.02716147	0.4215522	-0.7245094
5	100	1555488201	-245.525	-550.159	989.176	-93.04878	-87.56097	-53.41463	-169	608	-255	0.5442073	-0.03930784	0.4234138	-0.7231971
5	100	1555488201	-258.823	-569.008	976.671	-76.09756	-77.19512	-47.56098	-175	613	-247	0.5438321	-0.05026399	0.4242988	-0.7222816
5	100	1555488201	-255.224	-565.226	956.236	-62.19512	-60.12195	-44.7561	-183	616	-242	0.543144	-0.0593585	0.4249397	-0.7217323
5	100	1555488201	-232.654	-571.021	947.818	-53.29268	-50.4878	-37.80488	-190	620	-238	0.5423439	-0.0669271	0.4254586	-0.721366
5	100	1555488201	-196.725	-577.975	872.483	-55.97561	-36.09756	-31.09756	-195	622	-233	0.5414696	-0.07339702	0.4264351	-0.7208167
5	100	1555488201	-159.271	-595.482	886.879	-59.14634	-26.95122	-27.43903	-199	624	-228	0.5404466	-0.07904294	0.4282663	-0.7199011
5	100	1555488201	-88.633	-626.104	860.344	-61.58537	-27.56098	-27.80488	-202	627	-223	0.5392858	-0.08471938	0.4304331	-0.718833
5	100	1555488201	-94.55	-653.371	785.619	-58.17073	-36.70732	-26.82927	-206	628	-217	0.5384752	-0.09054842	0.4321421	-0.7177038
5	100	1555488201	-95.221	-670.085	767.258	-55.12195	-43.04878	-25	-209	632	-215	0.5380155	-0.09671316	0.4333018	-0.7165441
5	100	1555488201	-101.138	-649.65	788.425	-46.70732	-46.21951	-27.43903	-213	633	-211	0.5376768	-0.1029389	0.4338511	-0.715598
5	100	1555488201	-110.288	-694.485	725.046	-41.70732	-40.36586	-31.82927	-216	635	-207	0.5371699	-0.108768	0.4339122	-0.7150792
5	100	1555488201	-108.397	-712.236	717.238	-48.65854	-39.2683	-33.78049	-222	638	-205	0.536157	-0.1144749	0.4344005	-0.7146519
5	100	1555488201	-96.685	-675.392	732.488	-61.09756	-52.19512	-34.39024	-225	638	-198	0.5352154	-0.1213721	0.435194	-0.7137364
5	100	1555488201	-119.011	-658.251	794.952	-69.63415	-65.97561	-31.34146	-229	641	-194	0.534847	-0.1294595	0.4358653	-0.71218
5	100	1555488201	-149.511	-668.865	786.961	-76.82927	-67.19512	-28.53659	-235	642	-187	0.5348047	-0.1382794	0.4368419	-0.7099521
5	100	1555488201	-143.35	-650.321	780.312	-69.7561	-58.90244	-29.02439	-239	646	-183	0.534471	-0.146672	0.4378796	-0.7078768
5	100	1555488201	-146.644	-658.556	764.208	-62.80488	-49.2683	-28.41463	-244	647	-174	0.5340062	-0.1541185	0.4387951	-0.7060763
5	100	1555488201	-122.488	-655.262	723.216	-67.31708	-40.97561	-27.68293	-249	650	-168	0.5331784	-0.1608631	0.4400769	-0.7043977
5	100	1555488201	-73.2	-685.274	698.999	-67.43903	-33.17073	-28.29268	-251	650	-163	0.5319824	-0.1675771	0.4424268	-0.7022614
5	100	1555488201	-33.855	-702.415	700.646	-69.02439	-41.46342	-28.17073	-255	654	-157	0.5307006	-0.1741691	0.444319	-0.7004303
5	100	1555488201	-16.714	-717.543	714.432	-64.14634	-54.63415	-26.95122	-259	655	-152	0.5301288	-0.1812494	0.4453871	-0.6983856
5	100	1555488201	-32.269	-779.641	766.038	-58.53659	-62.68293	-30.60976	-262	657	-146	0.5297201	-0.1888485	0.4456313	-0.696524
5	100	1555488201	-31.171	-837.103	843.081	-56.58537	-67.68293	-33.53659	-268	658	-138	0.5294068	-0.1967223	0.4452651	-0.6948149
5	100	1555488201	-21.35	-903.898	825.086	-53.65854	-62.19512	-36.09756	-272	658	-130	0.5289813	-0.2046266	0.4447767	-0.6931669
5	100	1555488201	-32.391	-901.397	769.82	-50.2439	-49.7561	-45	-276	660	-126	0.5277326	-0.21189	0.44438	-0.6921903
5	100	1555488201	-29.524	-913.78	693.204	-53.41463	-46.46342	-50	-284	660	-122	0.525714	-0.2189398	0.4442579	-0.6916105
5	100	1555488201	-28.853	-919.636	649.223	-51.58537	-55.97561	-53.90244	-286	660	-116	0.5235462	-0.2265084	0.4438307	-0.6910917
5	100	1555488201	-70.699	-865.102	601.826	-64.14634	-74.2683	-49.14634	-294	659	-110	0.5220576	-0.2352367	0.4430372	-0.6898099
5	100	1555488201	127.002	-826.001	856.379	-20.97561	-56.46342	-63.65854	-298	660	-104	0.5203221	-0.2431104	0.4408704	-0.6897793
5	100	1555488201	-35.258	-963.19	547.17	-16.21951	-61.95122	-56.21951	-306	660	-101	0.5188186	-0.2501297	0.4376049	-0.6904813
5	100	1555488201	13.725	-937.143	688.751	-23.29268	-63.41463	-63.41463	-312	658	-99	0.5171705	-0.2569353	0.4347362	-0.6910306
5	100	1555488201	121.695	-952.21	779.58	-27.56098	-68.90244	-76.70732	-319	658	-95	0.5149428	-0.2649312	0.4312571	-0.6918546
5	100	1555488201	150.243	-956.175	812.337	-14.26829	-69.87805	-84.7561	-328	656	-91	0.5121546	-0.2730797	0.4273202	-0.6931975
5	100	1555488201	156.587	-986.187	791.475	19.5122	-57.80488	-84.5122	-335	652	-89	0.5095275	-0.2799158	0.4217353	-0.695822
5	100	1555488201	119.743	-1014.247	740.174	34.14634	-29.26829	-82.31708	-346	649	-90	0.5068064	-0.2841273	0.4158452	-0.6996368
5	100	1555488201	127.673	-875.594	699.426	44.02439	8.902439	-70.60976	-352	646	-92	0.5033689	-0.2855006	0.4109623	-0.7044283
5	100	1555488201	92.537	-863.577	732.915	52.80488	13.90244	-62.31707	-358	642	-96	0.4999496	-0.2849513	0.4067812	-0.7094943
5	100	1555488201	37.393	-1182.485	946.72	81.46342	-13.65854	-90.73171	-364	640	-102	0.4972471	-0.2838221	0.4012268	-0.7149876
5	100	1555488201	62.586	-787.327	669.841	97.68293	-14.02439	-103.1707	-371	633	-107	0.493132	-0.2848293	0.391644	-0.7227088
5	100	1555488201	61.732	-825.33	595.116	107.1951	-5.853659	-90.60976	-380	627	-115	0.4903208	-0.2842494	0.3821222	-0.7299112
5	100	1555488201	61.183	-754.509	605.364	98.17073	6.95122	-73.04878	-387	622	-125	0.4876288	-0.2824793	0.3735466	-0.7368084
5	100	1555488201	84.424	-707.173	567.422	95.12196	14.39024	-50.2439	-394	615	-133	0.4858806	-0.2796411	0.3661	-0.7427595
5	100	1555488201	85.583	-685.518	559.98	93.78049	33.90244	-25.2439	-396	610	-142	0.4852121	-0.2751854	0.3599353	-0.7478561
5	100	1555488201	112.24	-658.678	578.89	104.1463	64.02439	-4.02439	-398	605	-151	0.4852061	-0.2681051	0.3552049	-0.752678
5	100	1555488201	145.241	-614.026	565.836	111.5854	84.14635	15.60976	-395	600	-161	0.4859375	-0.2581561	0.3512375	-0.7575305
5	100	1555488201	976	-263.886	301.34	46.58537	141.0976	-46.70732	-393	596	-175	0.4841111	-0.2476272	0.3497116	-0.7629017
5	100	1555488201	303.048	-563.457	621.59	72.68293	107.9268	-48.41463	-390	592	-183	0.4786305	-0.2380138	0.3486129	-0.7698904
5	100	1555488201	265.716	-565.714	582.977	44.02439	115.6098	-50.36586	-390	589	-192	0.4731062	-0.2296823	0.3482772	-0.7759636
5	100	1555488201	193.858	-574.01	668.316	46.46342	118.7805	-50.60976	-390	586	-199	0.4671019	-0.2214423	0.3488876	-0.7817011
5	100	1555488201	87.535	-628.727	741.028	52.19512	117.439	-55.60976	-387	580	-209	0.4607984	-0.2129276	0.3489791	-0.7877437
5	100	1555488201	33.794	-647.82	785.497	53.04878	109.1463	-55.36586	-389	575	-215	0.4546319	-0.2046876	0.3485824	-0.7936643
5	100	1555488201	114.497	-582.733	783.057	51.09756	82.68293	-68.53659	-387	572	-221	0.4483363	-0.1979736	0.3473617	-0.7994629
5	100	1555488201	219.173	-541.009	692.228	39.02439	56.58537	-74.14635	-389	566	-228	0.4421893	-0.1938536	0.3452254	-0.8048036
5	100	1555488201	353.434	-666.669	699.426	18.65854	55.97561	-97.92683	-392	562	-232	0.4354589	-0.191229	0.3436079	-0.8097782
5	100	1555488201	124.135	-495.625	732.366	-47.43903	54.63415	-218.5366	-399	555	-232	0.4193998	-0.194586	0.3444319	-0.817072
5	100	1555488201	263.337	-666.852	851.316	8.04878	74.63415	-199.0244	-409	551	-232	0.4033404	-0.1959899	0.3443404	-0.8248237
5	100	1555488201	11.163	-546.743	864.919	54.14634	75.97561	-198.4146	-420	539	-239	0.3872383	-0.1950133	0.3403424	-0.834376
5	100	1555488202	-45.872	-393.572	1007.903	43.29268	35.73171	-159.7561	-430	529	-242	0.3732648	-0.1947081	0.3351848	-0.8428602
5	100	1555488202	-139.568	-762.988	996.435	79.2683	24.14634	-137.439	-438	519	-246	0.3644288	-0.1942198	0.3285623	-0.8494217
5	100	1555488202	27.328	-758.657	917.989	54.7561	26.58537	-185.9756	-445	509	-252	0.3528295	-0.1950438	0.3209937	-0.8569903
5	100	1555488202	227.591	-486.658	926.895	-5	49.2683	-231.4634	-457	497	-256	0.3349936	-0.1979125	0.3168737	-0.8649861
5	100	1555488202	123.22	-440.603	1117.398	10.73171	30.2439	-152.8049	-469	485	-258	0.3198767	-0.199469	0.3147069	-0.8711203
5	100	1555488202	267.729	-494.649	991.25	9.878049	-42.43903	-140	-476	472	-257	0.3100757	-0.2045045	0.3101596	-0.8751183
5	100	1555488202	426.695	-403.881	887.428	-15	-14.14634	-133.7805	-488	466	-255	0.3002989	-0.2105167	0.3072909	-0.8781091
5	100	1555488202	572.363	-320.921	919.087	4.390244	-29.14634	-143.0488	-494	458	-256	0.2901962	-0.2158574	0.3045442	-0.8811609
5	100	1555488202	651.358	-252.479	727.303	19.87805	-54.63415	-160.9756	-506	449	-252	0.2799702	-0.2231513	0.2988983	-0.884579
5	100	1555488202	549.549	-291.275	787.571	27.56098	-63.41463	-180.8537	-517	440	-250	0.2685855	-0.231727	0.2920621	-0.8881802
5	100	1555488202	427.549	-304.268	925.37	43.41463	-90	-190.7317	-531	428	-246	0.2565645	-0.2417371	0.2831813	-0.891934
5	100	1555488202	196.542	-495.137	1096.292	-5.487805	-128.1707	-136.3415	-542	415	-242	0.248244	-0.2534257	0.2762536	-0.8932157
5	100	1555488202	221.247	-442.86	1220.793	9.268293	-121.5854	-157.9268	-557	406	-232	0.2395409	-0.2671896	0.2702109	-0.8934293
5	100	1555488202	65.209	-540.521	1146.495	43.53659	-119.7561	-174.0244	-569	394	-227	0.2299071	-0.2794885	0.2607196	-0.8950163
5	100	1555488202	182.207	-402.295	1029.314	-5.121951	-109.3902	-163.6585	-584	379	-217	0.2200321	-0.2925199	0.2525102	-0.8956878
5	100	1555488202	323.788	-318.359	980.026	-31.34146	-52.31707	-148.2927	-593	371	-210	0.2087963	-0.3019806	0.2489395	-0.8962371
5	100	1555488202	428.952	-147.864	919.209	-23.90244	-45.12195	-150.1219	-601	359	-205	0.1975881	-0.3094272	0.245735	-0.8971221
5	100	1555488202	185.562	-68.198	945.256	13.29268	-79.7561	-51.21951	-609	350	-202	0.1898469	-0.3166295	0.2425306	-0.8971526
5	100	1555488202	558.455	29.463	1064.633	93.04878	-44.5122	22.80488	-613	346	-194	0.1922678	-0.3204443	0.236671	-0.8968474
5	100	1555488202	607.377	20.801	1019.493	-47.19512	-76.82927	-38.78049	-616	345	-193	0.1924587	-0.3255409	0.2354503	-0.895291
5	100	1555488202	392.596	10.98	1215.486	21.95122	-171.3415	-51.21951	-619	342	-184	0.1902656	-0.33726	0.2328867	-0.8920866
5	100	1555488202	411.994	-259.25	697.352	76.70732	-224.3902	-10.73171	-629	337	-171	0.1960095	-0.3538316	0.2220527	-0.8871731
5	100	1555488202	615.49	-140.788	835.029	17.19512	-75.12196	-51.09756	-638	334	-159	0.1967573	-0.3634449	0.21601	-0.8846095
5	100	1555488202	346.602	35.441	858.392	59.02439	-49.14634	-22.56098	-640	327	-155	0.1965443	-0.367626	0.2103031	-0.8843043
5	100	1555488202	637.694	-159.637	918.965	100.7317	12.92683	-6.463415	-645	324	-152	0.1983496	-0.3674734	0.2031007	-0.8856471
5	100	1555488202	638.487	-126.758	747.494	77.80488	-6.829268	-0.7317073	-643	322	-157	0.2016257	-0.3653066	0.1956542	-0.8874782
5	100	1555488202	654.835	-90.097	808.86	42.68293	-17.80488	-2.317073	-644	318	-158	0.203219	-0.3658559	0.1909848	-0.8879055
5	100	1555488202	602.924	-100.528	826.306	7.195122	-29.63415	-3.414634	-645	318	-158	0.2039331	-0.3676565	0.1884518	-0.8875393
5	100	1555488202	551.562	-154.025	901.58	-8.292683	-30.73171	-4.146341	-647	317	-156	0.2041792	-0.3699759	0.1878109	-0.8866543
5	100	1555488202	277.794	-206.668	839.848	73.29269	-107.439	17.07317	-649	315	-151	0.2071521	-0.3759575	0.1814936	-0.8847621
5	100	1555488202	669.353	-141.398	830.698	93.04878	-99.5122	14.7561	-652	315	-144	0.2130157	-0.3820307	0.1735893	-0.8823512
5	100	1555488202	637.633	-132.126	798.612	97.19512	-107.9268	31.34146	-653	313	-140	0.2195689	-0.3880734	0.1646474	-0.8798181
5	100	1555488202	633.912	-151.829	782.569	107.1951	-126.0976	53.41463	-657	313	-134	0.2282749	-0.3942991	0.1556749	-0.8764611
5	100	1555488202	593.591	-211.792	796.355	113.2927	-149.5122	83.41463	-660	314	-125	0.2392303	-0.4020814	0.1468246	-0.8715171
5	100	1555488202	485.316	-186.111	961.36	185.8537	-163.5366	144.5122	-661	318	-116	0.2556536	-0.409711	0.1357158	-0.8650777
5	100	1555488202	595.116	-219.112	712.846	215.122	-157.6829	130.4878	-661	323	-108	0.2755929	-0.4160588	0.1211585	-0.8580584
5	100	1555488202	778.177	-328.485	590.114	166.2195	-173.0488	112.6829	-662	328	-102	0.2933968	-0.4222541	0.1075167	-0.8509171
5	100	1555488202	873.642	-218.075	547.048	117.3171	-164.5122	83.17073	-662	333	-91	0.3067233	-0.430372	0.09701834	-0.843379
5	100	1555488202	935.74	-188.063	488.854	105.4878	-200.4878	83.65854	-664	337	-79	0.3185141	-0.4404736	0.08679464	-0.8348643
5	100	1555488202	903.532	-342.637	558.638	122.439	-231.9512	62.19512	-666	341	-66	0.3301311	-0.4525284	0.07480086	-0.8250068
5	100	1555488202	783.789	-102.358	598.349	131.0976	-207.561	26.34146	-668	342	-51	0.3396845	-0.4646138	0.06027406	-0.8155462
5	100	1555488202	803.919	-138.775	485.987	156.5854	-160.2439	-2.073171	-672	342	-38	0.3470863	-0.4726097	0.04373303	-0.8088626
5	100	1555488202	810.446	-155.916	451.034	169.3902	-137.561	5.731708	-673	340	-31	0.3546848	-0.4776757	0.02774133	-0.8032777
5	100	1555488202	789.584	-189.405	547.17	186.3415	-158.6585	18.78049	-676	336	-26	0.3633126	-0.4826807	0.01098666	-0.7968078
5	100	1555488202	785.07	-188.856	565.104	229.0244	-148.2927	27.43903	-677	336	-18	0.3742355	-0.4867702	-0.007477035	-0.7892697
5	100	1555488202	748.836	-169.641	638.914	284.8781	-154.1463	21.70732	-678	334	-13	0.3870195	-0.4885708	-0.02978607	-0.7814264
5	100	1555488202	762.012	-142.191	563.457	320.2439	-210.2439	34.7561	-679	334	-7	0.4017093	-0.4906461	-0.05563524	-0.7712333
5	100	1555488202	811.849	-144.387	480.436	336.3415	-184.6342	55.4878	-681	333	0	0.4178159	-0.4924772	-0.08398695	-0.7588428
5	100	1555488202	903.044	3.416	374.601	242.0732	-53.41463	93.04878	-680	337	1	0.4346182	-0.4897916	-0.1036103	-0.7486495
5	100	1555488202	782.081	-99.186	519.293	61.46342	119.1463	114.0244	-677	344	-5	0.4475407	-0.4830165	-0.1061129	-0.7450789
5	100	1555488202	883.89	-151.158	394.243	26.70732	205.8537	127.1951	-669	353	-21	0.4589622	-0.4700156	-0.09613331	-0.747795
5	100	1555488202	942.45	-101.26	356.85	-18.17073	100.4878	98.65854	-663	362	-38	0.4675542	-0.46086	-0.08618427	-0.749382
5	100	1555488202	988.749	-114.68	502.335	-53.53659	48.90244	86.21951	-658	371	-40	0.4721812	-0.4594256	-0.07745598	-0.7483138
5	100	1555488202	974.414	-140.178	503.494	-53.78049	62.92683	81.21951	-652	379	-45	0.4757926	-0.458388	-0.06866664	-0.7475204
5	100	1555488202	926.895	-194.834	518.378	-41.09756	52.68293	66.95122	-650	385	-47	0.4791121	-0.4569842	-0.06042665	-0.746971
5	100	1555488202	960.689	-225.883	486.231	-48.65854	31.21951	41.46342	-646	389	-48	0.480783	-0.4565874	-0.05395672	-0.7466353
5	100	1555488202	906.338	-142.496	722.362	4.390244	-3.536585	65.36585	-643	393	-50	0.4830758	-0.4571978	-0.04965362	-0.7450789
5	100	1555488202	1048.529	-150.792	588.101	97.56097	-6.341464	73.65854	-639	399	-52	0.491041	-0.4555498	-0.05191198	-0.7407147
5	100	1555488202	1059.021	-213.866	406.26	59.5122	26.34146	71.34147	-638	405	-55	0.4990577	-0.4511246	-0.05404828	-0.7379071
5	100	1555488202	1066.28	-266.082	333.853	-52.31707	5.853659	102.1951	-632	410	-57	0.5053502	-0.4512162	-0.0494705	-0.7338786
5	100	1555488202	1005.097	-252.967	413.702	-45.97561	37.68293	80.12196	-627	418	-56	0.5095427	-0.4514298	-0.04190191	-0.731315
5	100	1555488202	949.953	-264.496	482.266	-70.73171	47.92683	49.14634	-622	424	-58	0.5111445	-0.4516129	-0.03405866	-0.730491
5	100	1555488202	883.89	-173.728	605.486	-98.04878	40.73171	30.85366	-619	430	-57	0.5103319	-0.4532304	-0.02481155	-0.73043
5	100	1555488202	803.492	-208.864	624.457	-75.60976	49.02439	18.90244	-617	433	-57	0.5083083	-0.4537187	-0.01644948	-0.7317728
5	100	1555488202	776.774	-222.284	620.614	-49.63415	52.68293	20	-615	434	-57	0.5075413	-0.4530473	-0.009704886	-0.732841
5	100	1555488202	798.368	-296.033	569.74	-15.2439	57.56098	19.63415	-613	436	-58	0.5078314	-0.4506668	-0.005066073	-0.7341533
5	100	1555488202	911.523	-188.429	468.114	-30.2439	73.04878	2.073171	-610	439	-66	0.5084189	-0.4474319	-0.001129185	-0.7357402
5	100	1555488202	902.8	-208.559	457.561	-97.68293	129.7561	-8.658537	-609	437	-68	0.5055148	-0.4438917	0.008178961	-0.7398297
5	100	1555488202	848.815	-309.087	589.321	-81.46342	149.2683	-19.14634	-608	442	-73	0.5006902	-0.4384289	0.01998962	-0.7461165
5	100	1555488202	838.872	-258.274	598.654	-91.46342	114.6341	-35.97561	-604	441	-79	0.496415	-0.4330576	0.02899258	-0.751793
5	100	1555488202	701.561	-359.107	647.759	-80.85366	120.2439	-49.2683	-605	441	-85	0.490095	-0.4285714	0.03744621	-0.7581103
5	100	1555488202	697.169	-207.095	870.531	-78.90244	92.43903	-67.31708	-605	440	-87	0.4824206	-0.4259773	0.0455031	-0.7640309
5	100	1555488202	639.341	-159.332	461.038	-205.6098	72.07317	-129.1463	-606	434	-91	0.4718943	-0.4257942	0.05169836	-0.7702872
5	100	1555488202	774.273	-207.583	695.644	-193.4146	117.6829	-98.41463	-609	431	-88	0.4561785	-0.4272286	0.06570635	-0.7778558
5	100	1555488202	773.846	-249.307	675.27	-189.5122	132.0732	-92.07317	-613	429	-87	0.4419061	-0.4268624	0.07959227	-0.7849666
5	100	1555488202	778.482	-328.424	660.935	-168.1707	145.3659	-106.9512	-613	426	-90	0.4277832	-0.4248177	0.0933256	-0.7923521
5	100	1555488202	851.926	-199.714	760.243	-107.1951	112.6829	-122.561	-615	421	-91	0.4137337	-0.4218879	0.1028169	-0.8001648
5	100	1555488202	528.87	-176.229	813.618	-41.46342	91.21951	-55.2439	-618	417	-98	0.4034001	-0.4177679	0.1080966	-0.8068789
5	100	1555488202	885.293	-367.952	759.999	-14.5122	83.78049	-10.36585	-617	413	-101	0.4014339	-0.4132206	0.1113926	-0.8097476
5	100	1555488202	629.337	-317.017	700.829	68.78049	64.02439	-21.46342	-615	413	-109	0.4007581	-0.4068728	0.1105075	-0.8134098
5	100	1555488202	646.173	-159.881	722.24	52.19512	57.07317	-9.268293	-615	409	-113	0.4014999	-0.4005554	0.1072115	-0.8166143
5	100	1555488202	641.293	-148.657	766.892	25.36585	48.29268	16.70732	-615	409	-123	0.4027373	-0.3955504	0.1067232	-0.8185064
5	100	1555488202	644.038	-165.859	778.97	18.29268	31.70732	35.97561	-612	411	-127	0.4051018	-0.3918577	0.107181	-0.8190557
5	100	1555488202	713.151	-91.988	795.745	11.34146	33.04878	72.80488	-609	412	-128	0.4093035	-0.3885922	0.1089206	-0.8182928
5	100	1555488202	722.179	-247.477	772.931	28.90244	46.09756	97.92683	-606	419	-132	0.4161374	-0.3841975	0.1116367	-0.8165532
5	100	1555488202	693.326	-302.804	801.052	48.29268	60.12195	109.2683	-599	423	-138	0.4244814	-0.3777886	0.1141087	-0.8149052
5	100	1555488202	699.182	-357.033	800.198	78.65854	77.56097	120.122	-592	429	-146	0.4341779	-0.3692434	0.1156041	-0.8135014
5	100	1555488202	626.714	-145.973	652.7	69.87805	114.5122	123.1707	-581	435	-155	0.4442846	-0.3578905	0.1171911	-0.812891
5	100	1555488202	601.277	-66.978	1078.48	254.3902	240.6098	56.21951	-570	437	-172	0.454602	-0.3386334	0.1157567	-0.8156377
5	100	1555488202	377.712	-276.696	312.503	113.5366	202.0732	1.219512	-563	430	-199	0.4569779	-0.3162328	0.1108737	-0.8239387
5	100	1555488202	598.044	-704.672	907.314	237.9268	365.6098	52.68293	-549	428	-222	0.4621258	-0.2878201	0.1111179	-0.8314158
5	100	1555488202	219.295	107.299	1489.498	261.5854	261.5854	15.2439	-534	415	-255	0.4676162	-0.2537004	0.1027863	-0.8404797
5	100	1555488202	403.454	-269.925	-1078	324.5122	176.3415	-24.5122	-521	401	-279	0.4700759	-0.2246467	0.09356975	-0.8484145
5	100	1555488202	407.358	-252.54	-931	-57.07317	127.3171	-2.926829	-507	392	-300	0.469985	-0.2040773	0.09479049	-0.8535112
5	100	1555488202	307.928	-2.318	366.854	-17.80488	175.6098	8.170732	-499	393	-306	0.4689878	-0.1937925	0.09945982	-0.8559221
5	100	1555488202	366.793	-126.026	739.991	-98.41463	84.39024	5.609756	-491	397	-308	0.4674712	-0.1893063	0.1082797	-0.8566851
5	100	1555488202	417.911	-225.029	1133.563	-9.512196	83.41463	-1.341463	-484	400	-314	0.4660004	-0.18305	0.1168249	-0.8577227
5	100	1555488202	514.474	-626.897	0	-35.73171	169.7561	17.19512	-475	404	-318	0.4647101	-0.1740165	0.1280557	-0.8586993
5	100	1555488203	292.312	-69.235	1134.539	-117.0732	316.5854	63.29268	-475	412	-325	0.4636263	-0.1581164	0.1469161	-0.8593402
5	100	1555488203	273.463	-211.975	982.771	-50.73171	149.1463	87.31708	-456	412	-325	0.4670411	-0.1468551	0.1575671	-0.8576006
5	100	1555488203	256.383	-419.436	1191.574	-27.92683	84.14635	72.80488	-440	420	-331	0.4719868	-0.1374554	0.1653798	-0.8549761
5	100	1555488203	183.427	-138.775	1081.896	-6.219512	82.43903	47.68293	-427	425	-334	0.4736739	-0.1309244	0.1705069	-0.8540605
5	100	1555488203	215.208	-291.275	1090.924	-12.56098	55.2439	48.53659	-418	428	-338	0.4767382	-0.1258583	0.1742912	-0.8523514
5	100	1555488203	157.319	-269.559	995.398	-26.34146	37.07317	29.14634	-413	434	-339	0.4787168	-0.1227454	0.1776177	-0.8510087
5	100	1555488203	269.986	-301.645	1351.821	-26.82927	13.41463	-8.536586	-407	435	-342	0.4791743	-0.1213416	0.1818293	-0.8500625
5	100	1555488203	-36.234	-124.745	568.276	-154.6342	130.2439	3.658537	-402	440	-340	0.4768233	-0.1205481	0.1910153	-0.8494827
5	100	1555488203	498.919	-1155.035	-294	0.6097561	119.8781	-133.9024	-400	442	-341	0.4683364	-0.1149022	0.2035279	-0.8520768
5	100	1555488203	69.906	-112.972	425.658	38.53659	-232.1951	-64.87805	-391	450	-338	0.4670061	-0.11948	0.1918394	-0.8548845
5	100	1555488203	121.573	-69.418	1116.788	145.1219	-278.4146	-77.31708	-398	442	-342	0.4668708	-0.1402936	0.1751762	-0.8553728
5	100	1555488203	408.639	-168.36	579.927	128.2927	-122.3171	15.36585	-420	436	-332	0.4702584	-0.1460311	0.152501	-0.8568987
5	100	1555488203	378.261	-169.397	373.381	-114.6341	115.7317	3.04878	-437	421	-335	0.4704943	-0.145909	0.1554613	-0.8562578
5	100	1555488203	205.448	-163.419	1044.991	-130.7317	187.439	12.68293	-437	420	-331	0.4666089	-0.1387371	0.1735282	-0.8561052
5	100	1555488203	164.639	-373.625	1478.884	-3.658537	23.90244	11.34146	-427	432	-333	0.4656951	-0.132664	0.1813105	-0.8559526
5	100	1555488203	139.08	-251.503	1049.749	47.80488	-100.3659	-19.5122	-416	436	-336	0.4665273	-0.1366009	0.1758782	-0.8560137
5	100	1555488203	296.216	-154.696	728.767	44.02439	-51.21951	1.097561	-421	432	-335	0.4678679	-0.1405377	0.1683096	-0.8561662
5	100	1555488203	265.411	-216.184	790.682	-40	51.82927	2.195122	-425	430	-332	0.4679058	-0.1398663	0.1690725	-0.8561052
5	100	1555488203	214.659	-241.133	1097.329	-39.14634	53.65854	5	-427	429	-334	0.466633	-0.1370281	0.1751152	-0.8560442
5	100	1555488203	154.208	-254.858	1140.456	15.12195	-24.02439	-1.707317	-421	431	-335	0.466595	-0.1367229	0.1756035	-0.8560137
5	100	1555488203	229.482	-208.193	926.468	18.90244	-28.04878	-1.585366	-421	433	-334	0.4671538	-0.1384625	0.172277	-0.8561052
5	100	1555488203	228.628	-205.509	894.382	-16.09756	21.46342	1.707317	-423	431	-333	0.4690276	-0.1397137	0.1648	-0.8563493
5	100	1555488203	191.967	-238.388	1046.943	-13.53659	18.29268	1.829268	-424	432	-334	0.4686626	-0.1385846	0.1669362	-0.8563188
5	100	1555488203	191.906	-228.506	1010.221	7.195122	-13.65854	-1.219512	-424	431	-331	0.4700246	-0.1382183	0.1604663	-0.8568682
5	100	1555488203	218.929	-209.169	915	0.2439024	-0.9756098	0.1219512	-423	433	-334	0.4717242	-0.1396222	0.1527757	-0.8571123
5	100	1555488203	213.073	-225.883	978.074	-9.756098	13.04878	1.585366	-423	432	-333	0.4731131	-0.1399579	0.1470382	-0.8572955
5	100	1555488203	212.768	-230.153	998.814	0.3658537	-2.073171	0	-423	432	-332	0.47653	-0.140141	0.1314432	-0.8579058
5	100	1555488203	215.635	-220.515	954.223	0.3658537	-1.463415	-0.1219512	-424	432	-334	0.4776306	-0.140904	0.1259194	-0.8579974
5	100	1555488203	219.844	-222.528	978.44	-5.487805	7.073171	1.219512	-422	432	-333	0.4805586	-0.1422773	0.1125217	-0.8579974
5	100	1555488203	197.64	-226.798	996.801	-1.585366	0.6097561	0.3658537	-422	431	-331	0.4840765	-0.1420637	0.09494308	-0.8581805
5	100	1555488203	196.786	-214.232	963.19	-1.707317	0.4878049	0	-423	432	-334	0.486734	-0.1417585	0.08075198	-0.8581805
5	100	1555488203	201.727	-213.5	981.734	-3.902439	4.634147	0.8536586	-422	431	-334	0.4887434	-0.1421247	0.06982635	-0.8579363
5	100	1555488203	205.753	-217.953	979.477	-1.219512	0.1219512	-0.1219512	-422	432	-336	0.4902105	-0.1413923	0.06167791	-0.8578448
5	100	1555488203	206.973	-215.147	973.011	-2.195122	1.219512	0.2439024	-423	432	-334	0.4913358	-0.1413312	0.05505539	-0.8576617
5	100	1555488203	207.644	-215.391	985.333	-3.292683	2.560976	0.2439024	-423	432	-334	0.4921769	-0.1413007	0.05026399	-0.8574786
5	100	1555488203	212.646	-219.112	987.346	-1.95122	0.2439024	0.2439024	-423	432	-334	0.4928142	-0.1413312	0.04638813	-0.857326
5	100	1555488203	213.561	-220.21	976.488	-3.292683	1.829268	0.1219512	-422	432	-334	0.4932423	-0.1422468	0.04345836	-0.8570818
5	100	1555488203	205.326	-219.417	983.808	-3.170732	1.95122	0.3658537	-420	433	-333	0.493605	-0.1424909	0.04150517	-0.8569292
5	100	1555488203	205.387	-225.883	977.159	-2.439024	0.8536586	0.3658537	-423	430	-333	0.493813	-0.1429487	0.03994873	-0.8568072
5	100	1555488203	202.703	-222.345	976.549	-3.414634	1.829268	0.1219512	-423	431	-333	0.4939503	-0.1431013	0.03900266	-0.8567461
5	100	1555488203	209.84	-216.428	985.089	-2.804878	0.7317073	0.2439024	-421	431	-335	0.4941264	-0.1429792	0.03787347	-0.8567156
5	100	1555488203	210.389	-222.894	962.336	-3.292683	1.219512	0.2439024	-423	431	-334	0.4942258	-0.1435896	0.03701895	-0.8565935
5	100	1555488203	210.084	-217.953	974.597	-3.292683	1.463415	0.3658537	-423	432	-334	0.4943198	-0.1431928	0.03659169	-0.8566241
5	100	1555488203	232.654	-198.982	1003.694	-1.341463	-1.463415	-0.1219512	-422	431	-332	0.4946457	-0.142552	0.03463851	-0.8566241
5	100	1555488203	203.374	-221.796	968.863	-2.804878	1.95122	1.341463	-423	431	-335	0.4945209	-0.1428877	0.03503525	-0.8566241
5	100	1555488203	187.758	-236.192	991.006	-4.02439	1.341463	0.1219512	-423	431	-333	0.4942974	-0.1421552	0.03665273	-0.8568072
5	100	1555488203	205.326	-224.358	1019.432	-0.3658537	-0.7317073	-0.2439024	-423	432	-336	0.4943376	-0.1411786	0.03631703	-0.8569598
5	100	1555488203	264.374	-196.786	977.952	-1.463415	2.439024	-1.95122	-424	433	-335	0.4945135	-0.1426435	0.03463851	-0.8566851
5	100	1555488203	186.904	-223.565	987.285	-4.756098	2.439024	0.9756098	-424	431	-334	0.4943574	-0.1435896	0.03521836	-0.8565935
5	100	1555488203	193.736	-243.634	988.993	-1.707317	0.7317073	-0.2439024	-423	432	-333	0.4942269	-0.1438032	0.03616443	-0.8565935
5	100	1555488203	207.522	-226.676	948.916	-3.414634	0.8536586	0.6097561	-424	431	-333	0.4941111	-0.1441084	0.03653065	-0.8565935
5	100	1555488203	222.406	-211.731	987.407	-1.707317	2.195122	-0.2439024	-422	431	-334	0.4941677	-0.1436506	0.03613392	-0.8566546
5	100	1555488203	205.936	-211.67	975.634	-3.292683	2.073171	-0.1219512	-423	431	-334	0.4942845	-0.1445357	0.03534044	-0.8564715
5	100	1555488203	188.856	-219.478	982.893	-2.073171	1.829268	-0.3658537	-423	431	-333	0.4942302	-0.144322	0.03549303	-0.8565325
5	100	1555488203	213.256	-206.973	990.091	-3.170732	2.073171	-0.4878049	-423	432	-335	0.4942268	-0.1439558	0.03555406	-0.8565935
5	100	1555488203	201.666	-228.75	963.739	-4.878049	2.073171	0.1219512	-422	431	-333	0.4940341	-0.1439863	0.03662221	-0.8566546
5	100	1555488203	207.217	-208.498	959.286	-1.341463	1.707317	0.4878049	-424	430	-335	0.4941774	-0.1431318	0.03588977	-0.8567461
5	100	1555488203	192.699	-227.957	970.937	-2.439024	3.658537	-0.3658537	-423	433	-334	0.4940757	-0.1428266	0.03631703	-0.8568377
5	100	1555488203	227.408	-225.151	955.382	-1.463415	3.170732	0.3658537	-422	431	-332	0.4940673	-0.1441694	0.03616443	-0.8566241
5	100	1555488203	224.419	-220.881	982.588	-1.585366	0.6097561	0.3658537	-423	432	-333	0.4939067	-0.1455428	0.03646962	-0.8564715
5	100	1555488203	200.385	-211.853	983.564	-3.902439	1.829268	-0.7317073	-423	431	-335	0.4938765	-0.1448409	0.03680532	-0.8565935
5	100	1555488203	229.665	-237.412	969.656	-4.146341	1.097561	1.829268	-423	431	-333	0.493973	-0.1462752	0.03622547	-0.8563188
5	100	1555488203	212.097	-238.998	964.654	-1.707317	1.341463	0.7317073	-424	432	-335	0.4939444	-0.1465804	0.0361034	-0.8562883
5	100	1555488203	199.897	-218.868	1009.245	-1.95122	2.926829	-0.1219512	-422	431	-333	0.4939643	-0.1456038	0.03616443	-0.8564409
5	100	1555488203	213.683	-220.088	982.588	-3.170732	1.463415	0.3658537	-424	431	-334	0.4939855	-0.1457564	0.03598132	-0.8564104
5	100	1555488203	203.862	-220.576	970.205	-1.95122	1.463415	0.3658537	-424	430	-334	0.49404	-0.1444441	0.03616443	-0.8565935
5	100	1555488203	203.984	-219.661	976.793	-2.804878	1.829268	0.2439024	-425	432	-333	0.4940049	-0.1443526	0.03628651	-0.8566241
5	100	1555488203	213.927	-219.234	981.368	-2.682927	1.707317	0.6097561	-423	432	-333	0.4939859	-0.1440474	0.03631703	-0.8566851
5	100	1555488203	217.099	-222.772	953.979	-3.292683	1.463415	0.6097561	-424	431	-333	0.4940656	-0.1440168	0.03607288	-0.8566546
5	100	1555488203	196.725	-224.48	967.704	-4.390244	1.341463	0.4878049	-423	432	-333	0.4940173	-0.1437117	0.03650014	-0.8567156
5	100	1555488203	217.953	-218.136	977.708	-2.560976	0.7317073	0.2439024	-426	432	-338	0.4940886	-0.1435896	0.03601184	-0.8567156
5	100	1555488203	215.208	-223.931	967.948	-3.902439	1.463415	0.2439024	-423	431	-334	0.4940923	-0.1439558	0.03595081	-0.8566546
5	100	1555488203	214.476	-225.09	971.547	-3.902439	1.585366	0.9756098	-422	431	-334	0.4940639	-0.1445662	0.03607288	-0.856563
5	100	1555488203	207.705	-216.306	1003.145	-3.04878	1.585366	0.3658537	-423	433	-333	0.4940577	-0.144322	0.03640858	-0.8565935
5	100	1555488203	227.53	-219.295	1008.94	-2.682927	0.6097561	0.3658537	-424	432	-334	0.4941441	-0.1443831	0.03570666	-0.856563
5	100	1555488203	216.184	-217.953	991.006	-3.536585	2.926829	0.6097561	-423	431	-334	0.49424	-0.1446577	0.03546251	-0.8564715
5	100	1555488203	207.522	-226.127	985.699	-3.658537	2.439024	0.7317073	-424	432	-334	0.4942486	-0.1440474	0.0356151	-0.856563
5	100	1555488203	191.235	-220.393	969.107	-3.170732	2.195122	-0.1219512	-423	431	-334	0.4941658	-0.1434675	0.03616443	-0.8566851
5	100	1555488203	203.984	-224.053	962.702	-2.439024	1.219512	0.9756098	-424	432	-334	0.4942124	-0.1434065	0.03576769	-0.8566851
5	100	1555488203	206.241	-220.698	971.608	-3.414634	1.585366	0.3658537	-424	432	-334	0.4941899	-0.1436811	0.03570666	-0.8566546
5	100	1555488203	206.119	-224.541	977.342	-2.926829	1.219512	0.4878049	-423	433	-334	0.4941174	-0.1432234	0.03634755	-0.8567461
5	100	1555488203	217.16	-227.957	977.647	-3.536585	2.073171	0.1219512	-426	432	-333	0.4941152	-0.1443526	0.03622547	-0.856563
5	100	1555488203	231.068	-217.282	974.292	-1.829268	1.341463	0.2439024	-424	432	-334	0.4941909	-0.1448103	0.03552354	-0.8564715
5	100	1555488203	208.437	-226.798	978.806	-3.170732	1.95122	-0.2439024	-423	432	-332	0.4941033	-0.1456038	0.03570666	-0.8563799
5	100	1555488203	207.278	-219.478	983.991	-3.04878	1.341463	0	-424	432	-343	0.4940877	-0.1456343	0.03579821	-0.8563799
5	100	1555488203	207.339	-234.972	974.658	-3.902439	1.707317	0.9756098	-423	433	-333	0.494017	-0.1460005	0.03601184	-0.8563493
5	100	1555488203	209.169	-221.979	996.496	-3.04878	1.341463	-0.2439024	-424	432	-333	0.494072	-0.1460005	0.03598132	-0.8563188
5	100	1555488203	204.106	-217.16	973.438	-3.170732	1.463415	0	-425	432	-332	0.4941337	-0.1452681	0.03592028	-0.8564104
5	100	1555488203	218.319	-220.698	989.725	-4.02439	2.804878	0.8536586	-424	431	-335	0.494145	-0.1452376	0.03588977	-0.8564104
5	100	1555488203	197.701	-226.371	975.817	-2.926829	1.707317	0.1219512	-423	433	-332	0.4941225	-0.1441694	0.03613392	-0.8565935
5	100	1555488203	213.744	-221.613	981.063	-2.439024	2.439024	0.2439024	-425	431	-333	0.4941006	-0.1439863	0.0364391	-0.8566241
5	100	1555488203	218.075	-219.478	978.318	-2.926829	1.829268	0.2439024	-424	430	-333	0.4940901	-0.1434065	0.03671377	-0.8567156
5	100	1555488203	228.262	-225.944	980.514	-3.170732	1.463415	0.7317073	-422	433	-330	0.49411	-0.1445051	0.03640858	-0.8565325
5	100	1555488203	219.234	-225.944	980.026	-3.04878	1.707317	0.2439024	-423	432	-333	0.4941548	-0.145024	0.03588977	-0.8564409
5	100	1555488203	206.302	-232.654	964.776	-3.658537	2.195122	0.8536586	-423	433	-334	0.4941105	-0.1458174	0.03619495	-0.8563188
5	100	1555488203	204.899	-227.591	978.074	-1.829268	1.097561	0.6097561	-423	432	-334	0.494115	-0.1454512	0.03616443	-0.8563799
5	100	1555488203	209.718	-231.617	983.564	-3.170732	1.707317	0.8536586	-423	432	-335	0.4940768	-0.1455123	0.0364391	-0.8563799
5	100	1555488203	210.511	-231.8	980.087	-3.170732	0.7317073	0.9756098	-423	433	-334	0.4941047	-0.1452376	0.0364391	-0.8564104
5	100	1555488203	208.986	-228.75	976.366	-3.292683	1.707317	0.4878049	-423	433	-336	0.4940971	-0.1457869	0.03650014	-0.8563188
5	100	1555488203	217.16	-217.831	968.131	-2.682927	2.073171	0.9756098	-424	432	-332	0.494236	-0.145085	0.03598132	-0.8563799
5	100	1555488203	217.892	-222.223	971.303	-1.95122	1.463415	0.2439024	-424	432	-333	0.4942478	-0.1449324	0.03570666	-0.8564104
5	100	1555488203	211.426	-220.21	964.41	-2.682927	2.682927	0.3658537	-422	431	-333	0.494198	-0.1446577	0.03604236	-0.8564715
5	100	1555488203	193.919	-221.552	974.902	-2.926829	1.95122	0.4878049	-423	432	-334	0.4941561	-0.1438032	0.03640858	-0.8566241
5	100	1555488203	241.926	-215.33	986.675	-2.682927	2.073171	-0.1219512	-423	433	-332	0.4941336	-0.1441084	0.03622547	-0.8565935
5	100	1555488203	205.204	-226.676	963.495	-3.04878	1.707317	0.3658537	-423	433	-334	0.4941508	-0.1442	0.03634755	-0.856563
5	100	1555488203	214.72	-225.639	978.501	-2.926829	1.463415	0	-423	433	-334	0.4940639	-0.1444746	0.0364391	-0.856563
5	100	1555488203	218.99	-226.676	1002.047	-3.414634	2.560976	-0.2439024	-424	431	-333	0.4941011	-0.1445357	0.03640858	-0.8565325
5	100	1555488203	221.247	-217.892	994.422	-2.926829	2.439024	0	-423	433	-334	0.4941896	-0.1451155	0.03576769	-0.8564104
5	100	1555488203	213.256	-231.19	985.028	-2.926829	2.560976	0.9756098	-423	432	-332	0.4941485	-0.1457869	0.03579821	-0.8563188
5	100	1555488203	214.354	-227.53	983.625	-2.560976	2.926829	-0.1219512	-423	433	-334	0.4940676	-0.1456648	0.03595081	-0.8563799
5	100	1555488203	214.659	-223.321	971.486	-3.04878	3.292683	-0.4878049	-423	433	-332	0.494053	-0.1455123	0.03604236	-0.8564104
5	100	1555488203	212.829	-222.284	958.249	-1.95122	3.658537	-0.1219512	-423	432	-333	0.4941472	-0.1452071	0.03524888	-0.8564409
5	100	1555488204	208.864	-213.866	968.375	-1.097561	4.878049	-0.8536586	-424	433	-334	0.4942011	-0.1442305	0.0347911	-0.8565935
5	100	1555488204	213.073	-215.208	987.529	0.3658537	5.365854	-0.7317073	-422	432	-333	0.4942544	-0.1432844	0.03418073	-0.8567461
5	100	1555488204	214.903	-227.713	981.063	0.6097561	5.609756	-0.8536586	-423	433	-334	0.4941318	-0.1429182	0.03442488	-0.8568682
5	100	1555488204	213.988	-232.044	991.372	0.2439024	5.243903	-0.8536586	-422	431	-332	0.4939166	-0.1431623	0.03497421	-0.8569292
5	100	1555488204	215.696	-227.103	1003.084	-0.2439024	4.756098	-0.4878049	-423	431	-336	0.493798	-0.1425214	0.03552354	-0.8570818
5	100	1555488204	211.67	-223.931	1008.879	0.1219512	3.658537	-1.341463	-422	432	-336	0.4936766	-0.142552	0.0356151	-0.8571429
5	100	1555488204	197.579	-229.604	937.448	-1.097561	3.780488	0.3658537	-422	431	-334	0.4935286	-0.1429487	0.03607288	-0.8571429
5	100	1555488204	215.391	-216.611	987.163	-1.463415	3.902439	-0.8536586	-420	431	-334	0.493369	-0.1430097	0.03656118	-0.8572039
5	100	1555488204	211.121	-224.236	959.408	-0.7317073	1.829268	-0.1219512	-423	430	-335	0.4933353	-0.1432539	0.0367748	-0.8571734
5	100	1555488204	194.529	-220.088	957.395	-2.073171	3.414634	0	-421	430	-335	0.493261	-0.1424604	0.03729362	-0.857326
5	100	1555488204	205.57	-222.223	987.224	-2.439024	2.073171	0.7317073	-421	430	-334	0.4932562	-0.1422773	0.03735466	-0.8573565
5	100	1555488204	203.13	-226.554	974.841	-2.439024	0.4878049	0.9756098	-422	432	-336	0.4931307	-0.1419416	0.03817866	-0.857448
5	100	1555488204	197.945	-225.09	989.603	-4.390244	-0.2439024	1.463415	-422	431	-337	0.4930983	-0.1413007	0.0389111	-0.8575396
5	100	1555488204	197.152	-221.003	982.954	-5.121951	-1.95122	1.341463	-423	430	-336	0.4931618	-0.1402325	0.03927732	-0.8576617
5	100	1555488204	197.274	-228.811	989.359	-5.731708	-3.04878	1.707317	-422	431	-336	0.4932322	-0.1403241	0.0393994	-0.8576006
5	100	1555488204	207.034	-229.482	956.724	-5.609756	-1.829268	1.341463	-421	431	-335	0.4934065	-0.1412091	0.03869747	-0.857387
5	100	1555488204	223.077	-208.681	988.993	-3.04878	-0.8536586	0.9756098	-422	432	-334	0.4938812	-0.1419416	0.03595081	-0.8571123
5	100	1555488204	224.907	-221.43	954.65	-2.926829	1.829268	0.6097561	-424	430	-334	0.4941706	-0.143376	0.03424177	-0.8567767
5	100	1555488204	207.949	-217.831	956.602	-3.536585	3.902439	0.4878049	-421	431	-335	0.4940873	-0.1443526	0.03439436	-0.8566546
5	100	1555488204	212.585	-224.846	980.392	-1.585366	1.341463	0.4878049	-422	432	-334	0.4940614	-0.1445051	0.03488266	-0.8566241
5	100	1555488204	214.659	-223.321	986.492	-2.439024	1.585366	0.4878049	-421	430	-334	0.4939501	-0.1443526	0.03558458	-0.8566851
5	100	1555488204	210.084	-221.796	972.706	-2.560976	2.073171	0.2439024	-421	431	-333	0.4939009	-0.145085	0.03549303	-0.8565935
5	100	1555488204	207.644	-221.979	1002.535	-1.95122	2.073171	0.3658537	-423	431	-335	0.4939124	-0.1449934	0.03570666	-0.8565935
5	100	1555488204	209.108	-221.491	979.05	-1.829268	2.195122	0.4878049	-424	432	-333	0.4939446	-0.145146	0.03537095	-0.856563
5	100	1555488204	205.326	-230.214	979.965	-1.707317	2.195122	0.6097561	-421	432	-335	0.4938958	-0.1452376	0.03567614	-0.856563
5	100	1555488204	210.816	-224.724	989.054	-1.707317	1.707317	0.6097561	-421	431	-335	0.493908	-0.1449934	0.03576769	-0.8565935
5	100	1555488204	211.548	-217.953	984.54	-1.95122	2.804878	0.4878049	-423	432	-336	0.4940014	-0.1441694	0.0356151	-0.8566851
5	100	1555488204	202.215	-215.086	984.784	-1.829268	2.073171	0.4878049	-422	430	-334	0.4940231	-0.1430403	0.03546251	-0.8568682
5	100	1555488204	200.202	-213.439	988.017	-1.707317	2.682927	0.3658537	-420	431	-334	0.4941544	-0.1419111	0.03521836	-0.8569903
5	100	1555488204	213.134	-222.284	985.76	-2.195122	2.195122	0.2439024	-421	431	-334	0.494171	-0.1415448	0.03497421	-0.8570513
5	100	1555488204	205.509	-222.589	979.05	-2.317073	3.04878	0.4878049	-422	430	-334	0.4941891	-0.1418806	0.03485214	-0.8569903
5	100	1555488204	205.936	-222.04	984.601	-2.317073	2.073171	0.2439024	-423	431	-337	0.4941212	-0.1418195	0.03530991	-0.8570208
5	100	1555488204	200.019	-221.857	983.503	-2.073171	1.95122	0.2439024	-422	429	-334	0.4940241	-0.1416974	0.03567614	-0.8570818
5	100	1555488204	203.496	-228.018	974.963	-1.829268	2.195122	0	-423	431	-335	0.4939876	-0.1423383	0.03582873	-0.8569903
5	100	1555488204	214.781	-227.286	983.503	-1.95122	2.317073	0.1219512	-421	431	-335	0.4939477	-0.143437	0.03564562	-0.8568377
5	100	1555488204	215.086	-219.844	979.538	-1.707317	3.292683	0.4878049	-421	429	-336	0.4939779	-0.1437727	0.03534044	-0.8567767
5	100	1555488204	200.446	-222.162	985.089	-1.585366	3.414634	0.3658537	-422	430	-336	0.4939548	-0.1430403	0.03567614	-0.8568987
5	100	1555488204	209.535	-220.332	989.298	-1.219512	3.170732	0	-421	432	-336	0.4940336	-0.1420942	0.03543199	-0.8570208
5	100	1555488204	209.291	-222.894	988.017	-1.585366	3.414634	0.2439024	-421	432	-336	0.4939833	-0.1413312	0.03549303	-0.8571734
5	100	1555488204	201.971	-215.574	979.965	-2.195122	3.414634	0.2439024	-422	430	-337	0.4940438	-0.140965	0.03537095	-0.8572039
5	100	1555488204	201.117	-219.478	983.747	-1.707317	3.292683	0.1219512	-421	429	-336	0.4939709	-0.1400189	0.03570666	-0.857387
5	100	1555488204	195.932	-220.454	982.1	-1.707317	3.414634	0.2439024	-421	431	-336	0.4939967	-0.1395611	0.03567614	-0.857448
5	100	1555488204	181.17	-217.16	980.697	-2.317073	3.170732	0.4878049	-421	431	-339	0.4939675	-0.1381878	0.03628651	-0.8576617
5	100	1555488204	186.721	-212.89	981.429	-2.195122	2.439024	0	-422	429	-335	0.4939378	-0.136906	0.03650014	-0.8578753
5	100	1555488204	191.418	-218.563	962.458	-2.195122	2.317073	0.1219512	-421	430	-335	0.493961	-0.1362957	0.03631703	-0.8579668
5	100	1555488204	194.834	-210.877	975.817	-2.317073	2.073171	0	-421	430	-339	0.4939656	-0.1355327	0.03622547	-0.8580889
5	100	1555488204	199.775	-210.511	981.612	-2.804878	2.195122	-0.1219512	-422	430	-336	0.4939844	-0.1351665	0.03588977	-0.8581499
5	100	1555488204	194.529	-209.718	967.155	-3.04878	2.682927	-0.2439024	-422	429	-337	0.494018	-0.1345256	0.03564562	-0.8582415
5	100	1555488204	195.566	-213.988	995.52	-3.414634	2.073171	-0.1219512	-421	429	-338	0.4939972	-0.1339763	0.03579821	-0.8583331
5	100	1555488204	193.858	-216.123	988.078	-3.414634	1.707317	0	-422	430	-336	0.4938778	-0.1339763	0.03598133	-0.8583941
5	100	1555488204	188.429	-213.317	981.429	-4.268293	3.04878	0.1219512	-421	432	-336	0.4939496	-0.1340373	0.03549303	-0.8583636
5	100	1555488204	176.656	-211.304	961.543	-4.390244	3.04878	-0.1219512	-421	429	-337	0.4938308	-0.132725	0.03616443	-0.8586078
5	100	1555488204	172.813	-204.167	1000.095	-4.390244	0.8536586	-0.3658537	-421	429	-338	0.4937997	-0.1311686	0.03646962	-0.8588519
5	100	1555488204	179.035	-196.176	973.56	-4.512195	0.2439024	-0.8536586	-420	430	-336	0.4937276	-0.1298257	0.03650014	-0.8590961
5	100	1555488204	187.514	-209.352	964.288	-4.756098	0.2439024	-0.3658537	-422	431	-335	0.4936732	-0.1303446	0.0361034	-0.8590655
5	100	1555488204	187.941	-205.997	971.791	-5	0.3658537	-0.7317073	-421	432	-336	0.4936592	-0.130314	0.03567614	-0.8590961
5	100	1555488204	205.326	-198.921	1008.086	-4.268293	0	-1.219512	-420	433	-340	0.4936764	-0.131138	0.03460799	-0.8590045
5	100	1555488204	213.134	-205.448	994.239	-4.634147	0	-0.4878049	-422	432	-336	0.4936936	-0.132786	0.03335673	-0.8587909
5	100	1555488204	216.123	-205.082	1028.216	-4.878049	0.3658537	-0.8536586	-421	430	-336	0.4937174	-0.1338847	0.03253273	-0.8586383
5	100	1555488204	224.785	-208.071	999.729	-5.365854	0.7317073	-0.6097561	-422	430	-335	0.4936936	-0.1365703	0.03137303	-0.858272
5	100	1555488204	231.129	-215.818	965.386	-4.268293	0.9756098	-0.9756098	-422	433	-336	0.4936025	-0.1403546	0.03027436	-0.8577532
5	100	1555488204	247.599	-219.722	979.294	-1.829268	0.4878049	-0.1219512	-422	431	-335	0.4936644	-0.1452986	0.0283517	-0.8569598
5	100	1555488204	258.213	-228.811	956.297	-2.926829	3.780488	0.3658537	-422	432	-336	0.4935041	-0.1503647	0.02777184	-0.8561968
5	100	1555488204	227.896	-231.8	970.632	-2.804878	4.02439	0.4878049	-422	429	-334	0.4932171	-0.15244	0.02905362	-0.8559526
5	100	1555488204	232.959	-240.401	977.586	-2.073171	2.317073	0.2439024	-422	431	-336	0.4928104	-0.153386	0.03091525	-0.8559526
5	100	1555488204	234.118	-248.209	967.338	-3.658537	4.02439	0.8536586	-423	431	-335	0.4923605	-0.1546678	0.03329569	-0.8558916
5	100	1555488204	224.48	-268.278	954.223	-3.04878	3.658537	0.1219512	-421	431	-335	0.4916239	-0.1563463	0.0369274	-0.8558611
5	100	1555488204	228.262	-261.446	953.308	-0.9756098	3.170732	0.4878049	-421	429	-337	0.4910674	-0.1577502	0.03967406	-0.8558
5	100	1555488204	214.903	-256.688	953.186	-1.341463	5.121951	0.6097561	-421	431	-336	0.4905963	-0.1582995	0.04193243	-0.8558611
5	100	1555488204	198.555	-250.832	963.8	0.2439024	4.02439	0.3658537	-421	430	-336	0.4904848	-0.1563158	0.04318369	-0.8562273
5	100	1555488204	197.945	-238.449	983.015	-0.1219512	4.512195	0.7317073	-421	430	-343	0.4904798	-0.1534776	0.04373302	-0.8567156
5	100	1555488204	198.311	-237.717	952.881	-1.707317	5.97561	0.6097561	-421	430	-336	0.4905271	-0.1506394	0.04409925	-0.8571734
5	100	1555488204	207.034	-223.199	975.146	1.097561	2.560976	0.6097561	-420	430	-336	0.4906819	-0.1481368	0.04373302	-0.8575396
5	100	1555488204	197.396	-210.206	976.061	-0.9756098	5.97561	1.097561	-419	431	-338	0.4909987	-0.1457259	0.04226814	-0.8578448
5	100	1555488204	174.582	-212.402	984.845	-2.439024	6.707317	0.9756098	-421	431	-337	0.4910509	-0.1452986	0.04251228	-0.8578753
5	100	1555488204	172.203	-215.879	1015.223	1.463415	2.195122	1.097561	-420	432	-338	0.4912849	-0.1398053	0.0422071	-0.8586688
5	100	1555488204	171.288	-215.086	972.706	-5.609756	6.097561	0.3658537	-420	429	-339	0.4913298	-0.1364788	0.04263436	-0.8591571
5	100	1555488204	157.929	-223.992	989.786	-0.7317073	1.219512	1.463415	-419	432	-337	0.491332	-0.133488	0.04345836	-0.8595843
5	100	1555488204	179.584	-231.19	990.152	-3.292683	0.3658537	-0.3658537	-421	430	-337	0.4911651	-0.1327555	0.04455702	-0.8597369
5	100	1555488204	209.169	-238.327	966.85	-1.707317	1.829268	0.9756098	-421	430	-334	0.4911343	-0.1354717	0.04437391	-0.8593402
5	100	1555488204	204.045	-245.647	976.427	-1.585366	2.682927	0.6097561	-420	430	-338	0.4910411	-0.1381878	0.04470962	-0.8589435
5	100	1555488204	224.785	-253.577	1012.661	1.341463	1.463415	0.1219512	-419	430	-337	0.4909916	-0.1408429	0.04458754	-0.8585467
5	100	1555488204	252.662	-249.368	989.054	-0.3658537	4.02439	0.3658537	-418	429	-337	0.4911653	-0.1447493	0.04306162	-0.8578753
5	100	1555488204	225.822	-226.066	980.819	-0.7317073	7.317073	1.097561	-420	431	-337	0.49128	-0.1465804	0.04223762	-0.8575396
5	100	1555488204	212.463	-227.53	992.104	1.219512	6.463415	0.9756098	-420	432	-338	0.4913825	-0.1459395	0.04202399	-0.8576006
5	100	1555488204	198.433	-213.622	981.185	2.926829	5.121951	0.7317073	-418	429	-337	0.4914971	-0.1453597	0.04144414	-0.8576617
5	100	1555488204	209.108	-208.315	978.806	1.097561	6.463415	0.2439024	-420	429	-340	0.4920264	-0.1441084	0.03881954	-0.8576922
5	100	1555488204	223.26	-206.851	975.451	1.95122	6.585366	0.9756098	-420	428	-339	0.4922444	-0.1435286	0.03750725	-0.8577227
5	100	1555488204	206.668	-204.655	971.12	2.439024	7.195122	0.9756098	-419	430	-341	0.4924374	-0.1427045	0.03671377	-0.8577837
5	100	1555488204	218.807	-203.618	983.076	2.804878	7.195122	0.8536586	-418	426	-340	0.4925254	-0.1420637	0.03659169	-0.8578448
5	100	1555488204	223.565	-206.851	983.442	3.780488	7.682927	0.8536586	-416	428	-340	0.4926347	-0.1413617	0.03640858	-0.8579058
5	100	1555488204	208.62	-201.361	987.468	3.170732	7.560976	0.4878049	-416	426	-340	0.4926722	-0.1407208	0.03622547	-0.8579974
5	100	1555488204	191.784	-198.433	979.05	3.414634	9.756098	1.463415	-416	426	-342	0.4927477	-0.1399274	0.0361034	-0.8580889
5	100	1555488204	169.885	-200.751	991.616	1.707317	10.73171	1.219512	-415	427	-341	0.4928344	-0.1390423	0.03616443	-0.8581805
5	100	1555488204	160.247	-201.544	999.729	3.04878	7.682927	0.4878049	-416	425	-342	0.492894	-0.1382794	0.0361034	-0.858272
5	100	1555488204	169.214	-203.435	992.165	2.682927	6.219512	0	-416	427	-344	0.4929125	-0.1376995	0.03588977	-0.8583636
5	100	1555488204	169.641	-208.559	960.262	1.707317	7.560976	0	-415	425	-342	0.4929066	-0.1346477	0.03659169	-0.8588214
5	100	1555488204	164.029	-206.302	966.118	1.585366	7.682927	0.4878049	-414	427	-343	0.4929262	-0.1340068	0.03653065	-0.8589129
5	100	1555488205	165.066	-213.317	991.738	1.219512	6.707317	0.3658537	-414	426	-344	0.4929734	-0.1334574	0.03646962	-0.858974
5	100	1555488205	180.621	-221.064	972.828	0.6097561	3.780488	0	-413	425	-344	0.4928079	-0.131138	0.0377514	-0.8593707
5	100	1555488205	180.133	-208.986	961.238	1.219512	4.756098	0.6097561	-412	424	-344	0.4927669	-0.1303751	0.03814814	-0.8594928
5	100	1555488205	166.591	-199.409	968.131	0.7317073	7.195122	0.9756098	-414	424	-346	0.492841	-0.1295511	0.03793451	-0.8595843
5	100	1555488205	160.247	-193.919	986.858	1.707317	6.463415	1.097561	-411	422	-345	0.4930336	-0.1277505	0.03738517	-0.8597674
5	100	1555488205	155.184	-186.599	991.494	0.8536586	4.634147	0.7317073	-412	423	-346	0.4933657	-0.1229896	0.03631703	-0.8603168
5	100	1555488205	144.814	-166.347	999.973	-0.7317073	3.902439	0.8536586	-412	422	-346	0.4937399	-0.1182592	0.03460799	-0.8608356
5	100	1555488205	139.385	-168.848	979.599	-2.439024	3.780488	0.7317073	-412	422	-346	0.4941264	-0.113712	0.03289896	-0.8612934
5	100	1555488205	145.302	-164.7	993.507	-2.926829	1.585366	0.1219512	-412	421	-346	0.4943777	-0.1099582	0.03146458	-0.8616901
5	100	1555488205	155.245	-161.406	992.226	-3.780488	0.1219512	-0.2439024	-412	422	-347	0.4945354	-0.1084017	0.03018281	-0.8618427
5	100	1555488205	165.432	-175.314	966.789	-4.146341	0.9756098	0	-414	423	-346	0.4946182	-0.108768	0.02923673	-0.8617817
5	100	1555488205	173.362	-186.599	1016.321	-4.02439	-0.3658537	-0.2439024	-411	423	-345	0.4944791	-0.1100192	0.02960295	-0.8616901
5	100	1555488205	184.098	-190.564	1006.134	-5.243903	-0.3658537	-0.4878049	-413	422	-346	0.4943326	-0.1125523	0.02963347	-0.861446
5	100	1555488205	185.623	-206.607	987.59	-5	0	-0.3658537	-412	423	-347	0.4940867	-0.1159703	0.03030488	-0.8611103
5	100	1555488205	188.307	-207.888	982.832	-5	-0.6097561	-0.2439024	-412	424	-345	0.4938632	-0.1193884	0.03106784	-0.8607441
5	100	1555488205	192.333	-196.725	973.316	-5	-0.7317073	-0.2439024	-414	423	-345	0.4937498	-0.1220435	0.03100681	-0.8604389
5	100	1555488205	198.128	-192.882	954.406	-4.756098	-0.4878049	0.3658537	-413	424	-346	0.4937051	-0.1242714	0.03048799	-0.8601642
5	100	1555488205	177.815	-192.15	960.994	-5.243903	0.3658537	0.1219512	-413	423	-344	0.4937056	-0.1246986	0.03045747	-0.8601031
5	100	1555488205	183.061	-193.98	1010.587	-5.609756	-1.707317	-0.1219512	-413	424	-344	0.4936272	-0.1242714	0.03088473	-0.8601947
5	100	1555488205	184.464	-199.897	989.298	-5.97561	-2.317073	0	-413	423	-345	0.4934823	-0.1242714	0.0314951	-0.8602557
5	100	1555488205	177.815	-199.226	1000.095	-7.926829	-1.585366	0.1219512	-415	426	-344	0.4933877	-0.1249428	0.0319834	-0.8601947
5	100	1555488205	182.939	-213.622	994.239	-7.804878	-2.682927	0.2439024	-413	424	-345	0.4933466	-0.1254616	0.03222755	-0.8601336
5	100	1555488205	185.867	-216.001	938.607	-7.073171	-3.658537	0.2439024	-412	424	-343	0.4932273	-0.1268349	0.03274636	-0.8599811
5	100	1555488205	193.431	-216.794	948.916	-7.317073	-2.439024	0.6097561	-415	425	-344	0.4929844	-0.129368	0.03369243	-0.8597064
5	100	1555488205	199.165	-219.539	955.016	-6.95122	-2.073171	0.6097561	-414	426	-343	0.4927043	-0.1328776	0.03500473	-0.8592792
5	100	1555488205	199.775	-215.147	957.517	-5.97561	-2.073171	0.1219512	-416	428	-342	0.4924244	-0.1349528	0.03622547	-0.8590655
5	100	1555488205	195.81	-212.585	986.553	-4.878049	-2.195122	0.3658537	-416	426	-342	0.4923817	-0.1356243	0.03646962	-0.858974
5	100	1555488205	187.697	-205.631	1008.94	-4.146341	-1.463415	0.2439024	-416	427	-341	0.4924339	-0.1343425	0.03619495	-0.8591571
5	100	1555488205	180.499	-206.058	1034.804	-5.243903	-1.585366	0.1219512	-414	426	-342	0.4925839	-0.1317179	0.03582873	-0.8594928
5	100	1555488205	175.375	-206.363	1019.066	-6.341464	-2.073171	-0.3658537	-417	427	-341	0.4925753	-0.12949	0.03601184	-0.8598285
5	100	1555488205	173.972	-207.095	988.505	-5.609756	-1.95122	-0.2439024	-416	425	-342	0.4925659	-0.1283303	0.03592028	-0.8600116
5	100	1555488205	188.246	-208.925	981.734	-6.219512	-1.097561	-0.1219512	-418	428	-341	0.4925587	-0.128605	0.03576769	-0.8599811
5	100	1555488205	194.59	-213.5	969.9	-6.097561	-1.707317	0	-417	427	-341	0.4924315	-0.1301614	0.03628651	-0.859798
5	100	1555488205	206.302	-215.086	975.939	-4.634147	-1.95122	0	-418	427	-341	0.4923158	-0.1321452	0.03646962	-0.8595538
5	100	1555488205	216.123	-225.334	973.316	-4.756098	-0.9756098	0.6097561	-417	428	-339	0.4921507	-0.1354717	0.03656118	-0.8591266
5	100	1555488205	221.491	-233.02	982.039	-4.634147	-1.341463	0.3658537	-419	427	-341	0.4919557	-0.1386761	0.03720206	-0.8586993
5	100	1555488205	214.171	-224.907	989.847	-3.902439	-0.8536586	0.3658537	-417	429	-340	0.4917558	-0.1413312	0.0375988	-0.8583636
5	100	1555488205	215.818	-231.678	981.673	-4.02439	1.097561	1.097561	-419	428	-341	0.4917788	-0.1432844	0.03756829	-0.8580279
5	100	1555488205	202.886	-231.312	989.847	-3.780488	0.8536586	0.8536586	-417	428	-338	0.4917438	-0.1436811	0.03790399	-0.8579668
5	100	1555488205	198.555	-229.238	1002.23	-3.170732	0.4878049	0.4878049	-420	429	-340	0.4916748	-0.1432234	0.03845332	-0.8580584
5	100	1555488205	203.13	-224.297	985.333	-3.658537	1.341463	0.3658537	-420	429	-339	0.4917349	-0.1423078	0.03836177	-0.8581805
5	100	1555488205	193.797	-218.746	982.344	-3.414634	1.097561	0.4878049	-419	429	-341	0.4917184	-0.1411481	0.03875851	-0.8583636
5	100	1555488205	194.834	-223.199	989.908	-2.439024	1.95122	0.4878049	-418	427	-341	0.4916767	-0.1398358	0.03930784	-0.8585773
5	100	1555488205	203.313	-222.65	994.666	-2.439024	2.073171	0.6097561	-417	428	-339	0.4917654	-0.1386761	0.03897214	-0.8587298
5	100	1555488205	191.662	-218.563	1000.217	-2.073171	2.926829	0.4878049	-417	427	-341	0.4918227	-0.1377911	0.03869747	-0.8588519
5	100	1555488205	194.895	-221.918	995.642	-1.341463	2.317073	0.2439024	-417	428	-341	0.4918587	-0.1371502	0.03848384	-0.8589435
5	100	1555488205	207.278	-220.942	1002.596	-0.3658537	3.414634	0.4878049	-418	427	-341	0.4919886	-0.1370281	0.03793451	-0.8589129
5	100	1555488205	209.413	-223.077	997.289	-1.341463	4.390244	0.6097561	-417	428	-341	0.4920369	-0.1377605	0.03741569	-0.8587909
5	100	1555488205	205.814	-228.567	989.664	-0.1219512	4.756098	0.9756098	-417	428	-341	0.4920758	-0.1379437	0.03762932	-0.8587298
5	100	1555488205	204.838	-229.116	972.706	0.2439024	4.512195	0.8536586	-417	427	-341	0.4920085	-0.1384625	0.03799554	-0.8586688
5	100	1555488205	220.332	-231.922	983.503	0.3658537	5.243903	0.8536586	-417	427	-341	0.4920008	-0.1397748	0.03811762	-0.8584552
5	100	1555488205	221.308	-237.534	976.061	0.4878049	6.341464	0.4878049	-418	428	-340	0.4918963	-0.1419416	0.03833125	-0.8581499
5	100	1555488205	230.336	-247.233	979.721	2.804878	5.365854	0.7317073	-417	428	-341	0.4918206	-0.1440168	0.03839229	-0.8578448
5	100	1555488205	249.002	-245.281	984.723	3.902439	7.439024	1.341463	-416	427	-343	0.491918	-0.143376	0.03817866	-0.8579058
5	100	1555488205	242.109	-253.516	987.834	5.243903	11.34146	1.463415	-417	427	-342	0.4920474	-0.1424299	0.03799554	-0.8579974
5	100	1555488205	244.671	-247.416	1000.766	7.439024	11.70732	0.4878049	-415	427	-342	0.4921343	-0.1412702	0.0377514	-0.8581499
5	100	1555488205	247.233	-242.963	1003.511	9.268293	11.46342	0.6097561	-414	426	-343	0.4922966	-0.14008	0.03729362	-0.858272
5	100	1555488205	241.865	-234.911	971.242	6.95122	11.95122	0.6097561	-415	425	-345	0.492444	-0.1388897	0.03698843	-0.8583941
5	100	1555488205	231.373	-225.09	936.716	6.585366	15.12195	-0.2439024	-413	424	-344	0.4925067	-0.1375774	0.03680532	-0.8585773
5	100	1555488205	222.223	-209.23	974.048	8.04878	16.82927	-0.2439024	-414	423	-346	0.4925034	-0.136082	0.03671377	-0.8588214
5	100	1555488205	206.912	-209.657	965.63	11.82927	19.14634	0.7317073	-412	423	-347	0.49259	-0.1342814	0.03646962	-0.8590655
5	100	1555488205	180.865	-193.004	999.729	14.02439	22.92683	2.317073	-410	422	-349	0.4928198	-0.1321452	0.03613392	-0.8592792
5	100	1555488205	143.167	-169.397	1027.484	11.82927	31.46342	4.268293	-409	421	-351	0.4930849	-0.1295511	0.0361034	-0.8595233
5	100	1555488205	98.881	-153.842	1016.87	3.780488	35.2439	4.268293	-407	419	-354	0.4934092	-0.1266518	0.03686636	-0.8597369
5	100	1555488205	48.129	-143.411	1001.132	4.390244	32.07317	4.512195	-404	418	-351	0.493635	-0.1239967	0.03787347	-0.8599505
5	100	1555488205	65.27	-163.541	1007.903	2.073171	17.68293	0.7317073	-404	421	-356	0.4937329	-0.1221351	0.03848384	-0.8601336
5	100	1555488205	75.884	-165.981	965.386	5.487805	10.36585	0.3658537	-402	420	-355	0.4937498	-0.1210059	0.0384228	-0.8602862
5	100	1555488205	64.355	-153.415	940.498	2.195122	12.92683	1.585366	-402	418	-357	0.4939014	-0.1199683	0.03836177	-0.8603473
5	100	1555488205	99.125	-159.149	984.54	0.6097561	11.58537	-0.3658537	-400	419	-357	0.4938985	-0.1190222	0.03860591	-0.8604694
5	100	1555488205	89.67	-161.65	992.531	2.317073	6.95122	0.6097561	-398	419	-355	0.4939149	-0.1182897	0.03860591	-0.860561
5	100	1555488205	120.414	-200.08	993.629	1.463415	2.073171	-2.073171	-399	417	-356	0.49377	-0.1113926	0.03985718	-0.861507
5	100	1555488205	152.195	-192.15	1024.129	2.926829	2.682927	1.097561	-400	418	-358	0.4936973	-0.1108127	0.0397351	-0.8616291
5	100	1555488205	151.158	-187.331	1003.999	-1.097561	8.04878	1.341463	-399	418	-357	0.4938588	-0.1105686	0.03906369	-0.8615986
5	100	1555488205	152.439	-188.063	993.995	0.1219512	6.219512	0.8536586	-400	418	-357	0.4939103	-0.1101108	0.03903317	-0.8616291
5	100	1555488205	136.335	-196.054	962.58	0.6097561	4.512195	0.6097561	-399	418	-359	0.4940409	-0.1089206	0.03869747	-0.8617206
5	100	1555488205	138.409	-170.983	1005.768	1.341463	5.609756	1.219512	-399	418	-359	0.4943331	-0.1077303	0.03689688	-0.8617817
5	100	1555488205	127.612	-179.279	999.119	-1.707317	6.219512	0.2439024	-399	417	-358	0.4944968	-0.1054109	0.03640858	-0.8619953
5	100	1555488205	140.361	-161.284	999.912	2.804878	3.04878	1.097561	-399	418	-360	0.4946536	-0.1045564	0.0352794	-0.8620563
5	100	1555488205	138.714	-160.552	991.006	-1.707317	6.097561	0	-398	416	-359	0.4947577	-0.1035493	0.03454695	-0.8621479
5	100	1555488205	137.006	-188.978	981.856	-2.195122	5	0.7317073	-397	415	-362	0.4948816	-0.1024201	0.03384503	-0.8622394
5	100	1555488205	131.272	-161.955	990.762	0.3658537	1.341463	0.2439024	-398	416	-360	0.4949643	-0.1019623	0.03323466	-0.8622699
5	100	1555488205	143.655	-169.641	1012.905	-0.3658537	2.073171	0.4878049	-397	415	-360	0.4949538	-0.1023896	0.03286843	-0.8622394
5	100	1555488205	148.901	-176.717	1004.853	-4.512195	4.02439	-0.3658537	-397	415	-360	0.495012	-0.1020539	0.03222755	-0.8622699
5	100	1555488205	118.035	-184.525	992.592	-2.804878	2.317073	-0.3658537	-398	414	-360	0.4949509	-0.100528	0.03305155	-0.8624531
5	100	1555488205	135.664	-189.1	986.614	1.463415	1.829268	1.097561	-396	415	-362	0.4947151	-0.1009858	0.03436384	-0.8624836
5	100	1555488205	120.902	-177.51	994.971	-4.02439	6.585366	0.3658537	-397	415	-361	0.4947694	-0.1001007	0.03463851	-0.8625447
5	100	1555488205	129.93	-172.02	1018.395	0.9756098	1.463415	1.097561	-398	416	-361	0.4946952	-0.09891049	0.03530991	-0.8626972
5	100	1555488205	132.065	-181.658	1004.914	-3.780488	2.195122	-0.2439024	-397	415	-359	0.4947012	-0.0982696	0.03552354	-0.8627583
5	100	1555488205	143.716	-169.824	976.366	-2.439024	0.9756098	-0.1219512	-395	414	-362	0.4946519	-0.0986053	0.0352794	-0.8627583
5	100	1555488205	150.182	-176.29	983.564	-2.195122	2.926829	0.4878049	-396	415	-362	0.4947808	-0.09964293	0.03427229	-0.8626057
5	100	1555488205	142.13	-160.003	991.738	-2.804878	2.682927	0.7317073	-395	414	-360	0.4948699	-0.09921567	0.03344829	-0.8626362
5	100	1555488205	126.148	-165.188	997.35	-1.95122	0.9756098	0.2439024	-396	415	-360	0.4949931	-0.09823908	0.03292947	-0.8626972
5	100	1555488205	126.148	-171.349	1004.304	-2.804878	2.439024	0.1219512	-396	416	-361	0.4949423	-0.09768975	0.03292947	-0.8627888
5	100	1555488205	119.804	-174.582	1009.55	-3.292683	2.560976	0.2439024	-396	415	-362	0.4948945	-0.09668264	0.03341777	-0.8629109
5	100	1555488205	109.922	-179.828	1002.657	-2.804878	1.585366	0.2439024	-396	414	-361	0.4947479	-0.09537034	0.03460799	-0.863094
5	100	1555488205	115.839	-176.046	1017.968	-3.292683	0.9756098	0.2439024	-397	415	-360	0.4946596	-0.09472945	0.03534044	-0.8631855
5	100	1555488205	135.054	-179.035	1011.319	-3.780488	0.8536586	0	-397	414	-361	0.4946084	-0.09479049	0.03588977	-0.8631855
5	100	1555488205	146.827	-179.157	983.442	-3.902439	1.219512	0	-397	415	-361	0.4945125	-0.09637745	0.03592028	-0.8630635
5	100	1555488206	137.433	-176.473	983.198	-3.658537	0.8536586	0	-397	415	-359	0.4945108	-0.09750663	0.03582873	-0.8629414
5	100	1555488206	149.206	-170.983	986.614	-3.04878	1.341463	0.2439024	-397	415	-363	0.4945497	-0.0992462	0.03491317	-0.8627583
5	100	1555488206	151.402	-175.924	997.167	-3.536585	1.829268	0.3658537	-396	416	-358	0.494607	-0.1000397	0.03408917	-0.8626667
5	100	1555488206	146.583	-182.512	1007.537	-2.926829	1.95122	0.3658537	-398	415	-360	0.4946248	-0.1013215	0.03390606	-0.8625141
5	100	1555488206	157.014	-193.797	1007.049	-3.04878	1.829268	-0.2439024	-396	415	-361	0.4945397	-0.1027253	0.03402814	-0.8623921
5	100	1555488206	143.655	-156.343	1021.872	-2.560976	-0.8536586	-1.463415	-396	415	-360	0.4943568	-0.1037019	0.03372295	-0.8623921
5	100	1555488206	146.095	-195.81	966.24	-5.97561	3.292683	0.8536586	-398	415	-359	0.4943554	-0.1048616	0.03405866	-0.8622394
5	100	1555488206	150.06	-192.455	999.851	-6.341464	5.487805	1.829268	-396	416	-359	0.4943083	-0.105533	0.03497421	-0.8621479
5	100	1555488206	128.527	-185.013	949.465	-6.219512	2.926829	2.439024	-396	416	-360	0.4943246	-0.105533	0.03622547	-0.8620868
5	100	1555488206	124.44	-185.196	924.821	-6.829268	5.97561	2.317073	-396	417	-360	0.4942466	-0.1053194	0.03787347	-0.8620868
5	100	1555488206	130.235	-185.623	934.764	-4.634147	7.560976	3.292683	-395	416	-362	0.494362	-0.1050447	0.03851436	-0.8620258
5	100	1555488206	140.178	-166.347	984.906	-3.170732	7.682927	3.04878	-396	418	-362	0.4945409	-0.1045564	0.0389111	-0.8619648
5	100	1555488206	124.806	-176.168	984.906	1.95122	8.780488	2.926829	-395	418	-361	0.4947106	-0.103946	0.03906369	-0.8619342
5	100	1555488206	112.057	-157.38	1033.279	2.317073	8.658537	2.560976	-392	418	-363	0.4949307	-0.1031831	0.03897214	-0.8619037
5	100	1555488206	109.434	-162.809	1076.528	1.097561	6.097561	0.3658537	-392	418	-362	0.4950251	-0.1013215	0.03860591	-0.8620868
5	100	1555488206	112.972	-167.628	1094.401	-2.439024	0.3658537	-4.146341	-394	418	-360	0.4950874	-0.09619434	0.0372631	-0.8626972
5	100	1555488206	125.599	-159.271	1044.381	-2.804878	0	-3.414634	-395	416	-361	0.4949555	-0.0933256	0.03567614	-0.863155
5	100	1555488206	117.669	-177.571	998.814	-7.317073	5.487805	-2.195122	-394	415	-363	0.494748	-0.09344768	0.0352794	-0.8632771
5	100	1555488206	109.495	-190.259	1000.278	-7.195122	9.878049	-3.04878	-392	418	-362	0.4944319	-0.09317301	0.03595081	-0.8634602
5	100	1555488206	117.974	-212.28	983.564	-5.365854	3.04878	-3.536585	-393	417	-362	0.4938307	-0.09387494	0.03793451	-0.8636433
5	100	1555488206	137.616	-217.587	991.738	-0.2439024	-2.682927	-3.658537	-392	417	-360	0.493219	-0.09680472	0.04116947	-0.8635212
5	100	1555488206	146.888	-213.012	998.814	-2.195122	-3.780488	-2.560976	-393	418	-361	0.4928957	-0.09762871	0.04181036	-0.8635823
5	100	1555488206	153.903	-205.631	1013.271	-1.097561	-1.097561	-3.04878	-395	417	-360	0.4924149	-0.1013825	0.04293954	-0.8633686
5	100	1555488206	147.071	-206.424	1000.583	-0.7317073	2.317073	-4.02439	-396	415	-361	0.4920694	-0.1034272	0.0438551	-0.8632771
5	100	1555488206	132.37	-178.73	1032.242	0	-2.560976	-3.658537	-395	414	-363	0.4918215	-0.1028474	0.04257332	-0.8635517
5	100	1555488206	131.455	-170.556	1036.878	0.9756098	-3.780488	-2.560976	-395	415	-361	0.4917301	-0.1026337	0.04165776	-0.8636738
5	100	1555488206	115.046	-177.51	1020.042	-3.902439	-1.341463	-3.902439	-396	413	-362	0.4914605	-0.1021149	0.04104739	-0.8639179
5	100	1555488206	135.969	-193.37	1011.014	-4.878049	-2.317073	-2.560976	-396	414	-362	0.4912307	-0.1020234	0.04016236	-0.8641011
5	100	1555488206	140.483	-194.529	989.725	-3.780488	-0.9756098	-2.317073	-398	414	-362	0.4909784	-0.1035798	0.03991821	-0.8640705
5	100	1555488206	143.167	-196.359	976.61	-1.585366	-1.341463	-1.585366	-397	414	-363	0.4907469	-0.1044954	0.04037599	-0.8640705
5	100	1555488206	121.573	-182.329	981.429	-1.707317	0.3658537	-3.170732	-397	416	-362	0.4905229	-0.1042207	0.03988769	-0.8642536
5	100	1555488206	138.958	-178.303	999.729	-1.219512	-2.560976	-2.073171	-398	414	-362	0.490311	-0.1037324	0.03979614	-0.8644368
5	100	1555488206	174.887	-178.73	1011.197	1.585366	-4.02439	-5	-398	414	-360	0.4900778	-0.1040376	0.03921628	-0.8645589
5	100	1555488206	158.966	-172.63	992.226	0	-2.804878	-3.658537	-398	415	-360	0.4899419	-0.1045564	0.03747673	-0.8646504
5	100	1555488206	136.213	-164.7	1002.047	0.6097561	-0.2439024	-2.073171	-399	414	-361	0.4901189	-0.1033662	0.03485214	-0.864803
5	100	1555488206	132.431	-167.445	1020.591	-1.95122	-0.6097561	-2.560976	-399	414	-361	0.4900967	-0.101352	0.0334788	-0.8651082
5	100	1555488206	134.749	-186.05	1031.083	-0.2439024	-1.95122	-1.95122	-400	414	-359	0.4898699	-0.1008942	0.03344829	-0.8652913
5	100	1555488206	131.943	-185.989	997.289	-1.097561	-2.560976	-2.804878	-400	412	-361	0.4895293	-0.1015046	0.03421125	-0.8653829
5	100	1555488206	133.407	-191.174	994.788	-1.829268	-1.707317	-2.195122	-400	412	-362	0.4892756	-0.1017182	0.03488266	-0.8654744
5	100	1555488206	155.062	-201.117	982.832	-1.585366	-0.8536586	-2.804878	-400	412	-362	0.488822	-0.1044954	0.03604236	-0.8653523
5	100	1555488206	147.193	-188.49	982.222	0.9756098	-1.097561	-1.707317	-401	410	-360	0.4885671	-0.1065096	0.03653065	-0.8652303
5	100	1555488206	134.688	-172.264	997.716	1.585366	0.1219512	0.1219512	-400	411	-360	0.4885685	-0.1053194	0.03634755	-0.8653829
5	100	1555488206	141.276	-178.913	1027.728	-2.073171	-1.219512	-1.829268	-402	411	-362	0.4884474	-0.1036103	0.03634755	-0.8656575
5	100	1555488206	145.058	-179.767	1008.33	-1.463415	-5.365854	-3.780488	-400	410	-360	0.4882181	-0.1032136	0.03619495	-0.8658406
5	100	1555488206	162.687	-170.434	998.021	1.097561	-8.292683	-4.146341	-402	412	-360	0.487917	-0.103824	0.03558458	-0.8659627
5	100	1555488206	184.769	-176.168	985.638	-0.8536586	-4.268293	-3.536585	-405	410	-360	0.4876598	-0.1042207	0.03497421	-0.8660848
5	100	1555488206	198.921	-195.444	1006.195	0.7317073	-3.04878	-1.463415	-405	411	-361	0.4875368	-0.1058077	0.03418073	-0.8659932
5	100	1555488206	183.366	-180.072	979.477	-0.4878049	-0.9756098	0.8536586	-405	411	-360	0.4877037	-0.1111484	0.03176977	-0.8653218
5	100	1555488206	156.892	-174.155	997.167	-0.3658537	2.317073	1.463415	-403	409	-359	0.4880633	-0.1123081	0.02957244	-0.8650472
5	100	1555488206	166.713	-168.238	994.666	1.097561	-0.7317073	0.3658537	-405	410	-360	0.488227	-0.1117283	0.02813807	-0.8650777
5	100	1555488206	147.498	-178.913	1005.463	-0.6097561	-1.585366	-0.4878049	-404	410	-361	0.48823	-0.1109653	0.02829066	-0.8651692
5	100	1555488206	156.526	-175.802	996.862	-0.9756098	-1.95122	0	-404	410	-361	0.4881023	-0.1109653	0.02862636	-0.8652303
5	100	1555488206	146.888	-164.883	972.889	-1.95122	3.04878	0.2439024	-405	410	-359	0.4880476	-0.110538	0.02844325	-0.8653218
5	100	1555488206	132.919	-163.48	1010.526	-0.1219512	2.195122	0.9756098	-407	409	-360	0.4881561	-0.1078524	0.02853481	-0.8655965
5	100	1555488206	123.464	-162.565	1034.438	2.073171	-4.634147	-1.219512	-405	409	-361	0.4881628	-0.1054415	0.02816859	-0.8659016
5	100	1555488206	149.694	-163.053	1033.889	-0.6097561	-5.121951	-0.7317073	-405	408	-361	0.4881001	-0.1058687	0.02764977	-0.8659016
5	100	1555488206	141.154	-153.903	1008.513	-1.219512	-0.2439024	0	-405	407	-358	0.4881863	-0.1049532	0.02673421	-0.8659932
5	100	1555488206	138.287	-156.465	1000.461	-3.04878	-0.3658537	-0.7317073	-406	407	-361	0.4882219	-0.1034883	0.02584918	-0.8661763
5	100	1555488206	164.09	-164.09	999.485	-1.219512	-3.780488	-2.073171	-407	408	-359	0.488171	-0.1039155	0.02508621	-0.8661763
5	100	1555488206	199.592	-166.469	989.664	1.341463	-2.926829	0.9756098	-408	409	-360	0.4881505	-0.1052583	0.0240791	-0.8660542
5	100	1555488206	169.092	-161.101	1000.827	-3.902439	2.560976	0.9756098	-407	408	-361	0.4882834	-0.1081576	0.02276681	-0.8656575
5	100	1555488206	163.602	-151.951	986.37	-2.195122	0	0.3658537	-408	408	-361	0.4884748	-0.108829	0.02121036	-0.8655049
5	100	1555488206	175.314	-163.785	991.067	-1.341463	-1.341463	-0.4878049	-408	409	-359	0.4884857	-0.1096225	0.02059999	-0.8654134
5	100	1555488206	171.471	-171.837	994.727	-0.2439024	0.7317073	0.9756098	-407	408	-361	0.4884051	-0.1101108	0.02117985	-0.8653829
5	100	1555488206	156.587	-172.02	998.509	-2.560976	0.6097561	0.4878049	-407	408	-359	0.4881909	-0.1102329	0.0229194	-0.8654439
5	100	1555488206	148.169	-162.138	1002.413	-0.2439024	-0.2439024	0.9756098	-408	407	-358	0.488174	-0.1089206	0.02377392	-0.8655965
5	100	1555488206	149.145	-171.959	1000.888	-1.097561	1.463415	1.219512	-409	407	-358	0.4881274	-0.107944	0.02471999	-0.8657185
5	100	1555488206	132.919	-182.878	1023.092	-0.4878049	1.097561	2.195122	-407	410	-359	0.4881222	-0.1055635	0.02649007	-0.8659627
5	100	1555488206	129.991	-174.704	993.568	-0.9756098	0.7317073	0.8536586	-408	407	-360	0.4879596	-0.1039766	0.0286874	-0.8661763
5	100	1555488206	109.312	-149.023	993.568	-0.1219512	3.536585	0.6097561	-407	409	-357	0.487958	-0.1007721	0.02908414	-0.8665426
5	100	1555488206	98.149	-150.609	1003.816	0.6097561	0.3658537	0.7317073	-409	406	-358	0.4880891	-0.09549242	0.02923673	-0.8670614
5	100	1555488206	84.729	-133.468	1010.282	1.463415	-1.829268	0.8536586	-408	405	-360	0.4882314	-0.08993804	0.02908414	-0.8675802
5	100	1555488206	85.949	-117.608	1033.889	2.560976	-5.487805	0.2439024	-407	407	-359	0.4882919	-0.08865628	0.0283517	-0.8677023
5	100	1555488206	129.137	-124.867	1045.906	-3.536585	-8.536586	-3.902439	-409	407	-360	0.4881563	-0.08926664	0.02783288	-0.8677328
5	100	1555488206	171.471	-146.522	1013.332	-3.04878	-11.34146	-4.878049	-410	406	-361	0.4877312	-0.09024324	0.0273751	-0.8678854
5	100	1555488206	196.786	-154.391	1003.145	-2.926829	-4.756098	-1.341463	-411	405	-358	0.487564	-0.0910062	0.02685629	-0.8679159
5	100	1555488206	192.638	-164.761	1032.974	-6.341464	5.121951	0.6097561	-410	408	-357	0.4877086	-0.09756768	0.02368236	-0.867214
5	100	1555488206	158.112	-184.586	1047.553	-6.707317	5.365854	1.219512	-411	407	-359	0.487654	-0.1009247	0.02414014	-0.8668478
5	100	1555488206	132.431	-178.486	978.928	-8.04878	2.317073	-0.8536586	-410	407	-358	0.4874697	-0.1012299	0.02545244	-0.8668783
5	100	1555488206	140.788	-164.639	954.284	-4.878049	-0.3658537	-1.585366	-410	407	-358	0.4871231	-0.102237	0.02697836	-0.8669088
5	100	1555488206	162.87	-165.554	959.408	-0.6097561	-3.902439	-0.6097561	-409	407	-358	0.4869358	-0.1035493	0.02731407	-0.8668478
5	100	1555488206	188.978	-165.066	1016.321	-2.317073	-3.536585	-1.097561	-411	407	-357	0.4868847	-0.103885	0.02694784	-0.8668478
5	100	1555488206	216.184	-162.504	1054.995	-4.146341	-0.8536586	-1.463415	-412	408	-359	0.4870555	-0.1078829	0.02365185	-0.8663595
5	100	1555488206	216.733	-164.273	1052.677	-4.390244	7.926829	0.4878049	-413	404	-359	0.4871162	-0.1114231	0.02154607	-0.8659322
5	100	1555488206	178.425	-164.334	1010.709	-8.170732	13.17073	0.2439024	-410	407	-359	0.4870514	-0.1108432	0.02230903	-0.8660237
5	100	1555488206	123.281	-157.319	987.956	-5.853659	11.58537	1.463415	-410	406	-358	0.4870526	-0.1102023	0.02307199	-0.8660848
5	100	1555488206	108.153	-154.818	972.828	-7.195122	3.536585	-1.95122	-410	407	-360	0.4869216	-0.1086154	0.02417066	-0.866329
5	100	1555488206	154.025	-149.877	954.223	-2.439024	-4.634147	-3.04878	-409	408	-358	0.4866216	-0.1063265	0.0250557	-0.8667562
5	100	1555488206	214.476	-181.048	1010.709	1.341463	-5	-1.829268	-410	407	-358	0.486454	-0.1067232	0.02450636	-0.8668172
5	100	1555488206	242.902	-162.321	1037.488	-2.682927	6.95122	-0.9756098	-410	406	-359	0.4865177	-0.1121555	0.02145451	-0.8661763
5	100	1555488206	236.192	-167.018	1034.926	-5.97561	13.29268	-0.7317073	-410	407	-358	0.4863729	-0.1114841	0.02206488	-0.866329
5	100	1555488206	207.888	-177.205	1018.09	-4.512195	13.41463	1.707317	-410	407	-359	0.4863601	-0.1106906	0.02273629	-0.8664205
5	100	1555488206	147.864	-167.872	992.104	-9.02439	21.46342	4.634147	-408	406	-359	0.4865524	-0.1096225	0.02377392	-0.8664205
5	100	1555488206	66.673	-177.388	938.302	-15.12195	20.12195	1.707317	-408	408	-360	0.4866035	-0.1085238	0.02548296	-0.8664815
5	100	1555488206	82.045	-178.852	935.13	-4.146341	-1.219512	-2.560976	-407	410	-359	0.4862333	-0.1069369	0.02774133	-0.8668172
5	100	1555488206	140.788	-170.434	969.778	7.073171	-11.82927	-0.2439024	-407	409	-361	0.4862196	-0.1075167	0.02667318	-0.8667867
5	100	1555488206	166.042	-182.634	1028.582	-4.02439	0.7317073	-0.8536586	-407	408	-359	0.4861906	-0.108005	0.0262154	-0.8667562
5	100	1555488206	162.87	-171.41	1069.574	-5.853659	4.390244	-1.463415	-407	408	-360	0.4860193	-0.1082492	0.02636799	-0.8668172
5	100	1555488207	175.375	-165.981	1009.977	-2.560976	1.829268	-0.7317073	-408	407	-359	0.4859663	-0.1086764	0.02557451	-0.8668172
5	100	1555488207	145.058	-162.443	1001.071	-6.341464	6.95122	0.4878049	-407	408	-360	0.4860672	-0.1076388	0.02493362	-0.8669088
5	100	1555488207	148.23	-181.719	1018.212	-8.902439	6.219512	-0.6097561	-406	407	-358	0.4859707	-0.1074252	0.02560503	-0.8669698
5	100	1555488207	147.986	-175.314	962.702	-5.243903	2.682927	-1.097561	-408	409	-360	0.4856609	-0.107181	0.02728355	-0.8671224
5	100	1555488207	134.688	-165.371	990.884	-3.780488	1.707317	-0.2439024	-405	408	-361	0.4854706	-0.1051973	0.02865688	-0.8674276
5	100	1555488207	151.341	-175.863	995.032	-5.487805	0.4878049	-2.073171	-406	407	-358	0.4852614	-0.1044649	0.02932829	-0.8676107
5	100	1555488207	171.593	-183.122	991.128	-3.170732	-1.707317	-1.585366	-408	410	-358	0.4850293	-0.1067843	0.02932829	-0.8674581
5	100	1555488207	171.227	-171.105	975.512	-2.926829	-0.3658537	-0.6097561	-407	408	-361	0.4849839	-0.1092257	0.02829066	-0.867214
5	100	1555488207	153.354	-160.369	1010.648	-3.536585	2.439024	0.4878049	-407	407	-361	0.4851326	-0.1101718	0.0267037	-0.8670614
5	100	1555488207	131.821	-165.493	1018.822	-5.365854	1.707317	0.7317073	-407	410	-360	0.4851905	-0.10712	0.02716147	-0.8673971
5	100	1555488207	78.141	-133.59	1037	-8.04878	-3.170732	-1.707317	-406	410	-358	0.4852176	-0.1016877	0.02804651	-0.8680074
5	100	1555488207	84.729	-141.703	994.849	-11.58537	-12.31707	-6.341464	-408	408	-358	0.4847392	-0.1028779	0.0281991	-0.8681295
5	100	1555488207	128.649	-163.419	960.872	-11.34146	-18.17073	-7.317073	-409	410	-358	0.484165	-0.1045869	0.02801599	-0.8682517
5	100	1555488207	160.796	-191.906	975.634	-9.634147	-20.4878	-7.560976	-411	410	-356	0.483541	-0.1065401	0.02764977	-0.8683737
5	100	1555488207	165.676	-179.096	1011.197	-6.707317	-19.87805	-6.463415	-413	410	-355	0.4829781	-0.1084933	0.02700888	-0.8684652
5	100	1555488207	159.271	-166.225	1008.086	-11.46342	-15	-6.341464	-414	411	-356	0.4824363	-0.1102329	0.0267037	-0.8685568
5	100	1555488207	123.708	-153.476	1028.643	-12.56098	-12.31707	-6.707317	-416	410	-354	0.4818617	-0.1117588	0.02676473	-0.8686789
5	100	1555488207	82.96	-132.37	1003.572	-9.756098	-14.7561	-8.292683	-418	411	-352	0.4811781	-0.1132847	0.0267037	-0.868862
5	100	1555488207	123.403	-145.302	1000.095	-11.09756	-27.43903	-11.70732	-418	412	-351	0.4803625	-0.115421	0.02627644	-0.8690451
5	100	1555488207	185.501	-164.883	974.719	-4.756098	-33.90244	-13.04878	-421	410	-348	0.4793558	-0.1182287	0.02508621	-0.8692587
5	100	1555488207	220.088	-189.1	952.454	-3.04878	-22.07317	-8.170732	-423	409	-348	0.478623	-0.1205481	0.02377392	-0.8693808
5	100	1555488207	253.516	-209.962	964.532	-13.17073	-8.414635	-7.560976	-425	409	-347	0.4780019	-0.121952	0.02352977	-0.8695334
5	100	1555488207	242.841	-200.202	970.815	-9.146341	-4.512195	-5.365854	-426	409	-348	0.4774173	-0.1228675	0.02386547	-0.8697165
5	100	1555488207	215.086	-182.207	984.662	-1.707317	-6.707317	-4.634147	-426	411	-347	0.4769923	-0.1234779	0.02365185	-0.8698691
5	100	1555488207	210.999	-183.427	1012.478	-4.756098	-9.02439	-4.756098	-428	409	-344	0.4766242	-0.1243324	0.02322459	-0.8699606
5	100	1555488207	224.541	-190.015	989.725	-8.292683	-9.268293	-4.878049	-427	412	-346	0.4762115	-0.125309	0.02301096	-0.8700522
5	100	1555488207	229.055	-201.178	985.394	-9.878049	-9.512196	-6.463415	-430	410	-345	0.4756852	-0.1264382	0.02310251	-0.8701743
5	100	1555488207	239.669	-193.492	966.728	-4.390244	-10	-4.634147	-431	410	-345	0.475183	-0.1275368	0.02279733	-0.8702964
5	100	1555488207	233.569	-196.42	960.445	-6.097561	-4.512195	-3.292683	-433	409	-342	0.4748282	-0.1282693	0.0225837	-0.870388
5	100	1555488207	231.312	-197.335	979.538	-4.390244	-3.04878	-3.292683	-432	410	-344	0.4744812	-0.1303751	0.02252266	-0.8702658
5	100	1555488207	212.585	-199.836	992.348	-5.243903	-4.02439	-3.170732	-433	408	-342	0.4740772	-0.1317789	0.02285836	-0.8702658
5	100	1555488207	214.659	-185.196	990.274	-7.682927	-5.609756	-3.536585	-433	410	-342	0.4737864	-0.1324198	0.02285836	-0.8703269
5	100	1555488207	217.526	-181.658	984.784	-5.121951	-6.585366	-3.292683	-435	409	-342	0.4734633	-0.1331828	0.02279733	-0.8703879
5	100	1555488207	234.179	-188.246	971.791	-5.853659	-7.439024	-3.780488	-435	411	-343	0.473192	-0.1339763	0.02261422	-0.8704184
5	100	1555488207	245.586	-194.895	994.178	-4.634147	-6.829268	-3.658537	-436	411	-342	0.4727982	-0.1348003	0.02243111	-0.87051
5	100	1555488207	243.39	-189.954	973.377	-4.878049	-4.634147	-1.829268	-436	411	-340	0.4725688	-0.1354411	0.02221747	-0.8705405
5	100	1555488207	224.663	-188.734	989.42	-4.634147	-2.439024	-1.463415	-437	410	-340	0.472402	-0.1370586	0.02182074	-0.8703879
5	100	1555488207	203.191	-186.416	984.174	-4.756098	-4.268293	-0.7317073	-439	411	-340	0.4723105	-0.1369671	0.02194281	-0.8704489
5	100	1555488207	187.209	-185.928	963.434	-6.95122	-4.878049	-1.097561	-439	411	-339	0.4721818	-0.137608	0.02191229	-0.8704184
5	100	1555488207	185.501	-182.939	981.429	-6.585366	-6.341464	-1.707317	-437	411	-339	0.4719691	-0.1383404	0.02188177	-0.8704184
5	100	1555488207	205.631	-198.128	978.074	-5	-7.804878	-2.560976	-438	411	-339	0.4717429	-0.1391339	0.02172918	-0.8704184
5	100	1555488207	220.454	-197.396	963.373	-4.146341	-8.780488	-1.829268	-440	410	-337	0.4715422	-0.1400494	0.02142399	-0.8703879
5	100	1555488207	228.323	-192.76	974.17	-6.219512	-5.853659	-1.219512	-442	412	-337	0.4713705	-0.1408429	0.02124088	-0.8703574
5	100	1555488207	234.24	-207.766	997.777	-5.853659	-3.902439	-0.4878049	-440	411	-336	0.4712426	-0.1414533	0.0212714	-0.8703269
5	100	1555488207	232.166	-208.376	977.952	-4.878049	-5.487805	-1.097561	-442	411	-336	0.4711273	-0.1420331	0.02121036	-0.8702964
5	100	1555488207	231.8	-204.167	970.266	-4.390244	-5.97561	-1.097561	-442	411	-335	0.4709982	-0.142674	0.02102725	-0.8702658
5	100	1555488207	244.915	-207.766	999.79	-5.853659	-5.609756	-1.585366	-441	411	-335	0.4709006	-0.143376	0.02096622	-0.8702048
5	100	1555488207	251.625	-204.655	983.625	-6.097561	-6.707317	0	-443	413	-337	0.4707738	-0.1441694	0.02090518	-0.8701438
5	100	1555488207	259.067	-219.112	982.954	-4.512195	-3.780488	1.341463	-442	412	-335	0.4707693	-0.1447493	0.02081362	-0.8700522
5	100	1555488207	253.333	-211.853	959.53	-5	-2.439024	0.8536586	-443	413	-333	0.4706192	-0.1482894	0.02096622	-0.8695334
5	100	1555488207	252.601	-217.526	1010.587	-4.146341	-1.097561	0.3658537	-444	414	-335	0.4703089	-0.1512497	0.02194281	-0.8691671
5	100	1555488207	242.353	-211.487	989.908	-3.536585	-0.3658537	0.3658537	-444	411	-333	0.4702626	-0.1515854	0.02301096	-0.8691061
5	100	1555488207	252.845	-215.269	959.103	-4.756098	-0.7317073	0.9756098	-444	413	-334	0.4700801	-0.1525315	0.02392651	-0.8690146
5	100	1555488207	229.055	-206.607	935.801	-6.097561	-0.3658537	2.926829	-444	413	-333	0.4700517	-0.1529588	0.0250557	-0.868923
5	100	1555488207	210.938	-186.172	957.883	-3.536585	0.8536586	1.95122	-443	412	-336	0.4702866	-0.1510056	0.02508621	-0.8691366
5	100	1555488207	245.83	-206.241	1007.537	-3.414634	-3.292683	1.585366	-444	413	-337	0.470366	-0.1503647	0.02533036	-0.8691977
5	100	1555488207	245.952	-203.679	966.484	-4.512195	-3.170732	1.097561	-443	415	-334	0.4704108	-0.1509445	0.02523881	-0.8690756
5	100	1555488207	239.669	-199.409	964.349	-3.292683	-1.707317	2.439024	-446	414	-332	0.4705539	-0.1519517	0.02493362	-0.8688315
5	100	1555488207	231.739	-191.967	983.015	-4.756098	-3.658537	2.560976	-444	414	-333	0.4708384	-0.1525926	0.02414014	-0.8685874
5	100	1555488207	231.068	-198.311	974.231	-3.170732	-1.707317	2.073171	-445	414	-334	0.4710636	-0.1521043	0.02392651	-0.8685568
5	100	1555488207	215.269	-206.302	975.268	-4.512195	-1.707317	2.195122	-445	413	-336	0.4713129	-0.1500595	0.02417066	-0.8687705
5	100	1555488207	226.493	-188.368	977.586	-4.02439	-5.365854	1.585366	-445	413	-331	0.4715177	-0.150029	0.02365185	-0.8686789
5	100	1555488207	233.874	-194.895	960.262	-6.097561	-5.731708	1.829268	-444	414	-331	0.4715923	-0.1507004	0.02349925	-0.8685263
5	100	1555488207	244.061	-193.553	942.633	-5.853659	-3.170732	3.170732	-446	414	-332	0.4717808	-0.1515854	0.02304148	-0.8682821
5	100	1555488207	232.776	-200.995	959.225	-4.878049	-6.219512	2.682927	-446	415	-331	0.4719341	-0.1521653	0.02298044	-0.868099
5	100	1555488207	245.098	-195.688	952.454	-6.097561	-6.097561	1.707317	-447	415	-331	0.4720386	-0.1528977	0.02288888	-0.8679159
5	100	1555488207	263.276	-197.091	968.558	-5.609756	-5.609756	1.341463	-445	415	-330	0.4720912	-0.1535997	0.02288888	-0.8677633
5	100	1555488207	273.585	-191.906	964.41	-4.02439	-7.682927	3.536585	-447	416	-330	0.4722062	-0.1543016	0.02273629	-0.8675802
5	100	1555488207	250.1	-186.538	993.202	-4.146341	-5.487805	2.560976	-447	415	-329	0.4724621	-0.154912	0.0225837	-0.867336
5	100	1555488207	255.041	-186.294	979.599	-5.365854	-6.341464	3.04878	-448	414	-329	0.4726265	-0.1556139	0.02252266	-0.8671224
5	100	1555488207	267.119	-209.352	986.675	-5.97561	-6.219512	0.4878049	-450	417	-329	0.472712	-0.1563768	0.02249214	-0.8669393
5	100	1555488207	270.352	-205.265	966.606	-4.878049	-5.731708	1.707317	-448	417	-328	0.4727649	-0.1570788	0.02237007	-0.8667867
5	100	1555488207	233.02	-234.85	976.61	-4.878049	-3.292683	2.926829	-448	416	-327	0.4727981	-0.1575366	0.02316355	-0.8666646
5	100	1555488207	267.79	-221.003	983.503	-3.658537	-3.292683	2.073171	-450	417	-327	0.4728425	-0.1596118	0.02288888	-0.8662679
5	100	1555488207	258.762	-223.809	960.689	-6.219512	-3.04878	1.585366	-448	417	-325	0.4728364	-0.1607105	0.0234077	-0.8660542
5	100	1555488207	282.308	-214.72	968.253	-2.073171	-2.560976	1.463415	-449	417	-326	0.4728572	-0.1621754	0.02304148	-0.8657796
5	100	1555488207	299.327	-213.256	992.287	-1.95122	-1.95122	0.9756098	-450	417	-325	0.4729955	-0.1646779	0.02191229	-0.8652608
5	100	1555488207	301.157	-212.89	982.893	-2.195122	-0.2439024	0.4878049	-450	418	-328	0.4732976	-0.1677603	0.01959288	-0.8645589
5	100	1555488207	309.758	-207.278	1005.463	0.1219512	2.682927	1.219512	-449	417	-324	0.4735739	-0.1702017	0.017304	-0.863979
5	100	1555488207	309.575	-217.648	1009.245	0.3658537	5.609756	1.097561	-450	418	-326	0.4738401	-0.1716361	0.01556444	-0.8635823
5	100	1555488207	320.25	-213.744	995.825	0.3658537	6.463415	1.219512	-450	417	-326	0.4740169	-0.1735588	0.01419111	-0.8631245
5	100	1555488207	300.669	-213.134	957.334	0.4878049	10.73171	1.463415	-451	415	-325	0.4740697	-0.1729484	0.01431318	-0.863216
5	100	1555488207	287.249	-210.206	971.608	3.170732	11.70732	2.073171	-451	418	-325	0.4742444	-0.1720023	0.01440474	-0.8633076
5	100	1555488207	275.293	-203.008	965.081	2.317073	11.95122	1.463415	-449	417	-327	0.4743844	-0.1709952	0.01446577	-0.8634297
5	100	1555488207	250.649	-197.579	965.569	3.780488	12.56098	1.341463	-448	417	-327	0.4745461	-0.1699271	0.01446577	-0.8635517
5	100	1555488207	226.92	-185.928	975.939	1.341463	13.53659	1.463415	-446	416	-328	0.4747131	-0.1688284	0.01455733	-0.8636738
5	100	1555488207	216.001	-178.242	984.052	1.707317	12.07317	1.463415	-447	417	-332	0.4747959	-0.1677908	0.01480148	-0.8638264
5	100	1555488207	185.745	-172.264	958.127	1.341463	10.97561	0.8536586	-445	414	-329	0.4748828	-0.1669057	0.01489303	-0.8639485
5	100	1555488207	175.009	-160.369	973.682	0.9756098	9.02439	1.097561	-445	415	-331	0.4749935	-0.1661122	0.01492355	-0.86404
5	100	1555488207	160.735	-145.668	975.451	-0.6097561	7.926829	0.6097561	-445	414	-330	0.4750372	-0.1655019	0.01501511	-0.8641316
5	100	1555488207	163.724	-137.128	999.058	0.1219512	4.146341	-0.2439024	-443	414	-330	0.4757022	-0.1556749	0.0146794	-0.8655965
5	100	1555488207	181.048	-146.278	990.762	-3.04878	3.536585	-0.7317073	-442	415	-331	0.476392	-0.1445662	0.01403851	-0.8671529
5	100	1555488207	198.25	-157.868	1003.389	-3.658537	3.414634	-0.9756098	-444	414	-331	0.4767534	-0.1375774	0.0135197	-0.868099
5	100	1555488207	214.598	-165.493	972.584	-3.658537	2.317073	-0.9756098	-445	415	-332	0.4768761	-0.1350749	0.01284829	-0.8684347
5	100	1555488207	227.347	-191.54	968.314	-4.634147	5.853659	-0.8536586	-442	415	-332	0.4765045	-0.1358379	0.01437422	-0.8684958
5	100	1555488207	246.684	-215.391	996.252	-3.292683	5	-1.341463	-444	416	-334	0.475771	-0.1383709	0.01779229	-0.8684347
5	100	1555488207	259.616	-235.704	999.058	-2.682927	4.146341	-0.7317073	-442	416	-331	0.4748798	-0.1429487	0.02142399	-0.868099
5	100	1555488207	255.468	-244.549	956.48	-3.658537	7.195122	-0.8536586	-444	414	-332	0.4742224	-0.1458174	0.02392651	-0.8679159
5	100	1555488207	273.829	-239.303	978.196	-2.073171	5.121951	-0.9756098	-442	414	-333	0.4736334	-0.1495407	0.02581866	-0.8675497
5	100	1555488207	246.989	-246.867	925.126	-1.341463	8.170732	0.4878049	-443	414	-333	0.4733418	-0.1527146	0.02691733	-0.8671224
5	100	1555488207	264.496	-236.619	969.168	-0.9756098	6.341464	1.097561	-443	413	-335	0.4731245	-0.1548509	0.0273751	-0.8668478
5	100	1555488207	265.838	-219.722	938.058	-0.9756098	4.878049	0.2439024	-443	413	-333	0.4730565	-0.1581774	0.02691733	-0.8662984
5	100	1555488207	262.849	-204.228	966.24	-0.2439024	7.195122	1.097561	-442	415	-333	0.4732816	-0.159032	0.02575762	-0.8660542
5	100	1555488207	271.572	-198.067	972.096	0.4878049	7.195122	0.9756098	-442	415	-334	0.4733525	-0.1584826	0.02578814	-0.8661153
5	100	1555488207	282.796	-186.721	976.854	-0.7317073	6.341464	0.3658537	-441	414	-335	0.4739527	-0.1592456	0.0220954	-0.8657491
5	100	1555488207	283.833	-178.73	954.894	-1.585366	7.682927	1.097561	-443	413	-336	0.4741589	-0.1587268	0.02139348	-0.8657491
5	100	1555488207	288.164	-185.44	963.617	-1.097561	9.878049	2.073171	-440	413	-334	0.4742418	-0.1581164	0.0216071	-0.8658101
5	100	1555488207	263.52	-189.405	976.854	0.1219512	11.21951	2.439024	-440	414	-337	0.4744473	-0.1572924	0.02188177	-0.8658406
5	100	1555488207	259.372	-183.732	1004.975	1.707317	8.536586	2.682927	-439	413	-336	0.4746412	-0.1565294	0.02194281	-0.8658711
5	100	1555488207	255.346	-184.342	985.638	-0.2439024	10.85366	2.317073	-439	414	-337	0.4748322	-0.1557665	0.02203436	-0.8659016
5	100	1555488207	233.996	-192.577	987.102	-0.3658537	12.68293	2.926829	-439	414	-338	0.4749961	-0.1548814	0.02233955	-0.8659627
5	100	1555488207	204.716	-205.448	983.869	0.2439024	12.68293	2.317073	-437	411	-338	0.4751977	-0.1538743	0.02264473	-0.8660237
5	100	1555488208	213.561	-211.731	1016.26	0.2439024	11.70732	0.7317073	-435	412	-342	0.4753049	-0.1529893	0.02288888	-0.8661153
5	100	1555488208	227.469	-221.918	983.32	-1.097561	11.58537	0.6097561	-436	414	-340	0.4753433	-0.1521348	0.02316355	-0.8662374
5	100	1555488208	220.454	-227.103	987.224	0.8536586	11.21951	1.463415	-436	413	-340	0.475429	-0.1513108	0.02337718	-0.866329
5	100	1555488208	228.872	-219.661	979.294	1.463415	10.36585	0.4878049	-434	413	-341	0.4754732	-0.1504562	0.02346873	-0.866451
5	100	1555488208	245.952	-216.367	978.013	0.7317073	10.60976	1.219512	-433	413	-340	0.4755174	-0.1496017	0.02352977	-0.8665731
5	100	1555488208	244.671	-204.655	942.877	2.439024	11.58537	1.829268	-434	411	-339	0.4756792	-0.1487167	0.02362133	-0.8666341
5	100	1555488208	238.693	-196.176	961.543	5	12.80488	2.804878	-433	412	-342	0.475845	-0.1476485	0.02362133	-0.8667257
5	100	1555488208	220.698	-190.32	965.752	4.878049	14.26829	3.536585	-432	412	-344	0.4761681	-0.1464278	0.02359081	-0.8667562
5	100	1555488208	216.733	-194.224	989.176	4.634147	13.04878	2.926829	-432	412	-344	0.4764214	-0.1452376	0.02359081	-0.8668172
5	100	1555488208	206.241	-183.732	966.362	3.780488	12.07317	3.04878	-431	412	-345	0.476647	-0.1441389	0.02352977	-0.8668783
5	100	1555488208	199.409	-172.386	975.39	3.414634	12.43902	3.170732	-430	410	-344	0.4769041	-0.1431013	0.02352977	-0.8669088
5	100	1555488208	196.786	-171.227	953.613	2.439024	12.43902	2.439024	-430	410	-346	0.4771079	-0.1420331	0.02362133	-0.8669698
5	100	1555488208	188.856	-173.545	958.615	2.682927	11.58537	2.926829	-429	409	-346	0.4772927	-0.141026	0.02368236	-0.8670309
5	100	1555488208	187.636	-178.12	970.327	2.439024	11.09756	2.926829	-428	409	-345	0.4775217	-0.1400494	0.0237434	-0.8670614
5	100	1555488208	187.819	-180.621	952.149	2.682927	11.34146	2.926829	-428	411	-353	0.4777967	-0.1391034	0.02377392	-0.8670614
5	100	1555488208	185.623	-180.926	970.083	3.04878	10.85366	3.658537	-428	409	-349	0.4780534	-0.1382183	0.02377392	-0.8670614
5	100	1555488208	176.534	-174.704	986.126	2.560976	11.70732	3.536585	-425	408	-350	0.4783229	-0.1372723	0.02383496	-0.8670614
5	100	1555488208	164.761	-171.349	993.263	2.560976	13.04878	3.780488	-426	410	-351	0.4786149	-0.1362346	0.02392651	-0.8670614
