Log Mode	Log Freq	Timestamp	AccX	AccY	AccZ	GyroX	GyroY	GyroZ	MagnX	MagnY	MagnZ	qw	qi	qj	qk
5	100	1555432128	-32.94	132.309	1385.676	2.926829	-9.02439	-6.463415	-156	28	-227	0.8148463	0.03900265	-0.04831079	-0.576342
5	100	1555432128	139.08	-31.659	1044.259	1.341463	1.341463	0.3658537	-156	29	-229	0.7901962	0.04156621	-0.0511185	-0.609302
5	100	1555432128	15.311	-33.184	1025.227	-3.902439	0.9756098	0.3658537	-154	29	-228	0.7854776	0.04187139	-0.05157628	-0.6153142
5	100	1555432128	13.847	-35.807	1017.48	-4.02439	1.219512	0.2439024	-155	29	-227	0.7834041	0.04184088	-0.05175939	-0.6179388
5	100	1555432128	8.052	-35.258	1018.456	-2.560976	1.829268	0.1219512	-155	29	-227	0.7822112	0.04193243	-0.05185095	-0.6194342
5	100	1555432128	7.381	-34.953	1010.587	-3.170732	1.829268	0.8536586	-154	31	-228	0.7814534	0.04196295	-0.0519425	-0.6203803
5	100	1555432128	7.137	-31.171	1006.256	-3.170732	1.707317	0.3658537	-156	29	-228	0.7809179	0.04196295	-0.05197302	-0.6210517
5	100	1555432128	11.956	-36.478	1003.633	-3.04878	1.341463	0.6097561	-155	29	-229	0.7805236	0.04199347	-0.05203406	-0.62154
5	100	1555432128	8.967	-32.452	1010.404	-2.926829	1.463415	0.2439024	-156	30	-228	0.7802298	0.04199347	-0.05206458	-0.6219062
5	100	1555432128	8.296	-35.807	1010.953	-2.926829	1.463415	0.3658537	-156	29	-228	0.780007	0.04202398	-0.05209509	-0.6221808
5	100	1555432128	8.357	-35.868	1015.833	-2.804878	1.341463	0.4878049	-156	29	-227	0.7798365	0.04202398	-0.05209509	-0.6223944
5	100	1555432128	10.065	-33.855	1014.918	-2.804878	1.585366	0.3658537	-155	29	-229	0.7797128	0.04202399	-0.05212561	-0.6225471
5	100	1555432128	-4.209	-40.382	1006.988	-2.926829	1.219512	0.4878049	-155	28	-227	0.7796153	0.04202399	-0.05212561	-0.6226692
5	100	1555432128	0.915	-27.694	1014.918	-3.170732	1.585366	0.3658537	-154	30	-229	0.7795421	0.04202399	-0.05212561	-0.6227607
5	100	1555432128	7.869	-29.768	1013.881	-2.804878	1.585366	0.3658537	-154	29	-227	0.7794654	0.04205451	-0.05215613	-0.6228523
5	100	1555432128	1.891	-30.378	1012.966	-2.804878	1.097561	0.6097561	-154	30	-227	0.779441	0.04205451	-0.05215614	-0.6228828
5	100	1555432128	6.649	-32.269	1000.827	-2.682927	1.463415	0.6097561	-154	31	-228	0.7793922	0.04205451	-0.05215613	-0.6229438
5	100	1555432128	3.477	-28.914	1032.608	-3.170732	1.707317	0.7317073	-154	29	-228	0.7793679	0.04205451	-0.05215614	-0.6229744
5	100	1555432128	0.366	-36.6	1032.913	-2.926829	1.097561	0.2439024	-155	30	-227	0.7793413	0.04205451	-0.05218665	-0.6230049
5	100	1555432128	0.854	-40.199	995.703	-2.682927	1.707317	0.3658537	-156	31	-229	0.7793413	0.04205451	-0.05218665	-0.6230049
5	100	1555432128	5.185	-29.524	1018.822	-2.560976	1.463415	0.4878049	-155	29	-227	0.779317	0.04205451	-0.05218665	-0.6230354
5	100	1555432128	6.039	-31.964	1011.746	-2.804878	1.585366	0.6097561	-153	30	-228	0.7793153	0.04208503	-0.05218665	-0.6230354
5	100	1555432128	6.649	-28.121	1011.563	-2.926829	1.463415	0.6097561	-154	28	-228	0.7793153	0.04208503	-0.05218665	-0.6230354
5	100	1555432128	8.235	-29.646	1014.186	-2.804878	1.219512	0.4878049	-153	30	-228	0.7792909	0.04208503	-0.05218665	-0.6230659
5	100	1555432128	3.233	-39.65	1013.271	-2.682927	1.341463	0.6097561	-155	28	-227	0.7792909	0.04208503	-0.05218665	-0.6230659
5	100	1555432128	6.771	-33.672	1016.565	-2.804878	1.219512	0.3658537	-153	29	-227	0.7792925	0.04205451	-0.05218665	-0.6230659
5	100	1555432128	3.904	-39.711	1022.482	-2.804878	1.341463	0.6097561	-155	28	-228	0.7792909	0.04208503	-0.05218665	-0.6230659
5	100	1555432128	3.111	-29.402	1027.85	-2.682927	1.707317	0.1219512	-154	30	-227	0.7792909	0.04208503	-0.05218665	-0.6230659
5	100	1555432128	6.527	-35.624	1015.345	-2.682927	1.707317	0.3658537	-152	30	-228	0.7792909	0.04208503	-0.05218665	-0.6230659
5	100	1555432128	-2.562	-31.476	1002.23	-2.682927	1.585366	0.2439024	-155	29	-226	0.7792909	0.04208503	-0.05218665	-0.6230659
5	100	1555432128	6.039	-28.182	1018.7	-2.682927	1.829268	0.4878049	-155	28	-228	0.7792909	0.04208503	-0.05218665	-0.6230659
5	100	1555432128	15.738	-34.526	985.15	-2.804878	1.341463	0.4878049	-154	30	-227	0.7792909	0.04208503	-0.05218665	-0.6230659
5	100	1555432128	2.867	-32.513	1026.63	-2.804878	1.341463	0.2439024	-157	30	-228	0.7792664	0.04208502	-0.05218665	-0.6230963
5	100	1555432128	4.941	-36.417	1024.922	-2.682927	1.341463	0.4878049	-154	28	-227	0.7792664	0.04208502	-0.05218665	-0.6230963
5	100	1555432128	2.257	-33.184	1007.11	-2.804878	1.707317	0.4878049	-156	27	-227	0.7792909	0.04208503	-0.05218665	-0.6230659
5	100	1555432128	7.503	-32.452	1014.979	-2.560976	1.463415	0.1219512	-153	29	-227	0.7792664	0.04208502	-0.05218665	-0.6230963
5	100	1555432128	13.542	-33.367	989.908	-2.804878	1.707317	0.4878049	-156	29	-228	0.7792649	0.04211555	-0.05218666	-0.6230965
5	100	1555432128	9.577	-28.67	1013.393	-2.560976	1.707317	0.6097561	-154	29	-229	0.7792649	0.04211555	-0.05218666	-0.6230965
5	100	1555432128	17.141	-29.219	1015.406	-2.682927	1.707317	0.2439024	-155	29	-228	0.7792649	0.04211555	-0.05218666	-0.6230965
5	100	1555432128	7.869	-37.82	1010.343	-2.682927	1.585366	0.3658537	-154	30	-228	0.7792892	0.04211554	-0.05218665	-0.6230659
5	100	1555432128	7.991	-33.55	1020.469	-2.682927	1.707317	0.3658537	-156	30	-228	0.7792669	0.04211554	-0.05215613	-0.6230964
5	100	1555432128	8.418	-39.955	1014.552	-2.804878	1.341463	0.6097561	-153	29	-228	0.7792914	0.04211555	-0.05215614	-0.6230659
5	100	1555432128	0.061	-32.33	1015.223	-2.926829	1.341463	0.1219512	-157	28	-228	0.7792669	0.04211554	-0.05215613	-0.6230964
5	100	1555432128	0.793	-34.892	1014.43	-3.04878	1.585366	0.3658537	-153	31	-229	0.7792669	0.04211554	-0.05215613	-0.6230964
5	100	1555432128	-0.549	-30.256	1013.576	-2.804878	1.463415	0.3658537	-157	29	-228	0.7792664	0.04208502	-0.05218665	-0.6230963
5	100	1555432128	2.501	-31.415	1011.868	-2.682927	1.463415	0.2439024	-154	30	-227	0.7792649	0.04211555	-0.05218666	-0.6230965
5	100	1555432128	11.651	-35.38	1005.402	-2.804878	1.463415	0.4878049	-156	28	-228	0.7792664	0.04208502	-0.05218665	-0.6230963
5	100	1555432128	0.305	-29.097	1021.994	-2.804878	1.463415	0.3658537	-154	31	-228	0.7792664	0.04208502	-0.05218665	-0.6230963
5	100	1555432128	15.738	-33.55	1019.127	-2.560976	1.341463	0.1219512	-155	30	-227	0.7792649	0.04211555	-0.05218666	-0.6230965
5	100	1555432128	-6.527	-37.21	1008.086	-2.439024	1.585366	0.2439024	-155	30	-228	0.7792664	0.04208502	-0.05218665	-0.6230963
5	100	1555432128	1.769	-33.001	1017.358	-2.804878	1.219512	0.2439024	-154	30	-228	0.7796177	0.03723258	-0.04669332	-0.6234015
5	100	1555432128	14.823	-31.11	1001.01	-2.682927	1.585366	0.2439024	-154	30	-228	0.7801825	0.02673421	-0.03585925	-0.6239509
5	100	1555432128	8.723001	-33.55	1012.478	-2.804878	1.585366	0.6097561	-156	29	-229	0.7805043	0.01882992	-0.02691733	-0.6242867
5	100	1555432128	12.993	-34.892	1017.419	-2.804878	1.829268	0.2439024	-154	29	-228	0.7806907	0.01245155	-0.0201117	-0.6244698
5	100	1555432128	3.904	-34.587	1014.979	-2.804878	1.463415	0.4878049	-156	30	-228	0.7807753	0.007477035	-0.01480148	-0.6245918
5	100	1555432128	2.135	-36.6	1015.589	-2.926829	1.707317	0.2439024	-155	31	-228	0.7808206	0.00390637	-0.01062044	-0.6246529
5	100	1555432128	8.357	-31.171	1020.896	-2.682927	1.585366	0.4878049	-156	29	-227	0.7808386	0.001464888	-0.007721183	-0.6246834
5	100	1555432128	-2.44	-33.672	1013.454	-2.926829	1.585366	0.2439024	-154	29	-228	0.7808576	-0.0007019257	-0.005615406	-0.6246834
5	100	1555432128	10.98	-29.829	1009.55	-2.682927	1.707317	0.3658537	-156	29	-229	0.7808389	-0.002319407	-0.004211554	-0.6247139
5	100	1555432128	9.455	-36.722	994.056	-3.04878	1.463415	0.4878049	-154	30	-229	0.7808387	-0.003662221	-0.003173925	-0.6247139
5	100	1555432128	5.978	-31.293	999.607	-2.682927	1.585366	0.3658537	-155	29	-227	0.7808372	-0.004669332	-0.001983703	-0.6247139
5	100	1555432128	6.649	-27.206	1022.909	-2.926829	1.585366	0.1219512	-154	29	-226	0.7808343	-0.005401776	-0.001129185	-0.6247139
5	100	1555432128	6.771	-37.759	1015.162	-2.926829	1.585366	0.4878049	-156	30	-227	0.7808318	-0.005859555	0	-0.624714
5	100	1555432128	2.257	-28.487	1031.815	-2.560976	1.829268	0.3658537	-156	29	-228	0.7808281	-0.006286813	0.0007019257	-0.6247139
5	100	1555432128	8.357	-28.914	1029.314	-2.804878	1.585366	0.3658537	-156	30	-227	0.7808247	-0.006683555	0.0008850369	-0.624714
5	100	1555432128	7.625	-37.82	1013.881	-2.682927	1.707317	0.1219512	-152	29	-227	0.7808175	-0.007477034	0.0007324441	-0.6247138
5	100	1555432128	3.599	-37.21	1032.364	-3.04878	1.585366	0.3658537	-157	29	-228	0.7808121	-0.007995849	0.001007111	-0.6247139
5	100	1555432128	8.845	-33.489	998.631	-2.682927	1.585366	0.2439024	-154	30	-226	0.7808126	-0.007934812	0.001129185	-0.6247139
5	100	1555432128	5.795	-29.28	999.363	-2.926829	1.829268	0.2439024	-154	31	-227	0.7808128	-0.007904294	0.001190222	-0.6247139
5	100	1555432128	4.88	-30.439	1008.147	-2.926829	1.341463	0.2439024	-154	32	-229	0.7808163	-0.007538073	0.001312296	-0.624714
5	100	1555432128	8.723001	-34.648	1011.075	-3.04878	1.829268	0.3658537	-157	28	-228	0.7808126	-0.007873775	0.001464888	-0.6247139
5	100	1555432128	2.989	-39.711	1014.064	-2.926829	1.585366	0.1219512	-154	31	-228	0.7808104	-0.007995849	0.001953185	-0.6247139
5	100	1555432128	1.586	-39.65	1018.273	-2.682927	1.707317	0.1219512	-155	29	-227	0.7808096	-0.007934812	0.002410962	-0.6247139
5	100	1555432128	1.952	-41.541	1017.785	-2.804878	1.341463	0.3658537	-155	29	-228	0.7808075	-0.007995849	0.00286874	-0.6247139
5	100	1555432128	3.721	-38.857	1014.735	-3.04878	1.341463	0.1219512	-156	31	-227	0.7808076	-0.00778222	0.003387555	-0.6247139
5	100	1555432128	5.673	-33.306	1016.199	-2.804878	1.707317	0.3658537	-154	30	-228	0.7808089	-0.007690664	0.003295999	-0.6247139
5	100	1555432128	2.623	-32.574	1007.659	-2.682927	1.341463	0.2439024	-156	29	-228	0.7808089	-0.007751701	0.003143406	-0.6247139
5	100	1555432128	6.771	-28.914	1009.55	-2.926829	1.585366	0.4878049	-153	30	-228	0.7808128	-0.007477035	0.002838221	-0.6247139
5	100	1555432128	10.37	-30.134	1013.82	-2.682927	1.463415	0.3658537	-156	29	-227	0.7808368	-0.00778222	0.002014222	-0.6246834
5	100	1555432128	7.137	-32.696	1015.528	-2.439024	1.463415	0.3658537	-154	30	-225	0.7808115	-0.007904294	0.001861629	-0.6247139
5	100	1555432128	7.564	-33.672	1023.214	-2.439024	1.585366	0.3658537	-156	29	-227	0.7808123	-0.007934812	0.001312296	-0.6247139
5	100	1555432128	12.017	-39.955	1017.297	-3.04878	1.95122	0.4878049	-153	30	-227	0.7808349	-0.008148441	0.001007111	-0.6246833
5	100	1555432128	4.087	-30.5	1015.223	-2.682927	1.463415	0.4878049	-156	29	-227	0.7808136	-0.007812738	0.001281777	-0.6247139
5	100	1555432128	4.209	-30.683	1013.698	-2.926829	1.463415	0.4878049	-153	29	-228	0.7808131	-0.007812738	0.001556444	-0.6247139
5	100	1555432128	13.786	-38.735	997.96	-2.926829	1.707317	0.4878049	-157	31	-227	0.7808329	-0.008239998	0.001648	-0.6246834
5	100	1555432128	11.102	-32.574	1010.953	-2.804878	1.829268	0.3658537	-154	29	-226	0.7808329	-0.008239998	0.001678518	-0.6246834
5	100	1555432128	14.213	-39.589	1029.131	-2.804878	1.707317	0.4878049	-156	32	-227	0.7808272	-0.008697775	0.001983703	-0.6246834
5	100	1555432128	4.758	-34.953	1012.722	-2.804878	1.341463	0.2439024	-154	29	-228	0.7808026	-0.008636738	0.002288888	-0.6247139
5	100	1555432128	-3.294	-33.55	1034.804	-2.682927	1.585366	0.2439024	-155	29	-228	0.7808049	-0.008301035	0.002716147	-0.6247139
5	100	1555432128	4.575	-33.855	1022.726	-2.682927	1.463415	0.3658537	-155	30	-227	0.7808102	-0.007812738	0.002624592	-0.6247139
5	100	1555432128	-1.098	-30.561	1002.901	-2.682927	1.585366	0	-156	30	-226	0.7808144	-0.007293923	0.002838221	-0.6247138
5	100	1555432128	-0.183	-31.171	1014.918	-2.682927	1.707317	0.2439024	-154	30	-226	0.7808181	-0.00717185	0.00204474	-0.6247139
5	100	1555432128	13.237	-31.354	998.082	-2.804878	1.463415	0.2439024	-155	29	-228	0.7808163	-0.007415998	0.001861629	-0.6247139
5	100	1555432128	6.039	-34.16	1016.016	-2.682927	1.463415	0.6097561	-153	29	-228	0.7808166	-0.007354961	0.001983703	-0.6247139
5	100	1555432128	15.311	-34.77	1015.101	-2.560976	1.219512	0.2439024	-154	29	-229	0.780811	-0.007965331	0.001831111	-0.6247139
5	100	1555432128	10.736	-35.014	1014.552	-2.682927	1.707317	0.7317073	-152	30	-228	0.7808065	-0.008362072	0.001953185	-0.6247139
5	100	1555432128	-3.294	-35.014	1017.236	-2.804878	1.585366	0.4878049	-155	29	-228	0.7808044	-0.008514664	0.002136296	-0.6247139
5	100	1555432128	2.379	-38.43	1019.859	-2.439024	1.219512	0.4878049	-155	31	-227	0.7808012	-0.008758812	0.002288888	-0.6247139
5	100	1555432128	0.793	-34.526	1014.003	-2.682927	1.463415	0.3658537	-156	28	-227	0.7808075	-0.008209479	0.002197333	-0.6247139
5	100	1555432128	3.355	-36.844	1016.26	-2.682927	1.463415	0.1219512	-154	30	-228	0.7807847	-0.008026368	0.002288888	-0.6247444
5	100	1555432128	3.66	-34.282	1015.406	-2.926829	1.585366	0.3658537	-155	27	-228	0.7807854	-0.007843256	0.002624592	-0.6247444
5	100	1555432128	5.612	-32.391	1014.918	-2.804878	1.585366	0.3658537	-154	30	-228	0.7807865	-0.007660146	0.00286874	-0.6247445
5	100	1555432128	6.893	-33.55	1018.09	-2.317073	1.829268	0.4878049	-156	30	-228	0.7807864	-0.007751702	0.002655111	-0.6247445
5	100	1555432128	3.233	-34.282	1013.149	-2.682927	1.341463	0.3658537	-154	30	-228	0.7807856	-0.007873775	0.002502518	-0.6247444
5	100	1555432128	10.919	-35.746	1016.87	-2.560976	1.463415	0.3658537	-155	27	-228	0.7807832	-0.008209479	0.002166814	-0.6247444
5	100	1555432128	9.333	-36.966	1015.223	-2.682927	1.463415	0.1219512	-153	30	-228	0.7808053	-0.008453627	0.00204474	-0.6247139
5	100	1555432128	0.854	-37.515	1019.066	-2.804878	1.585366	0.2439024	-155	29	-228	0.7807802	-0.008453627	0.002288888	-0.6247444
5	100	1555432128	7.442	-40.504	1008.147	-2.560976	1.707317	0.3658537	-155	31	-228	0.7807769	-0.008758812	0.002288888	-0.6247444
5	100	1555432128	7.747	-31.415	1003.45	-2.804878	1.707317	0.6097561	-155	30	-228	0.78078	-0.008423109	0.002471999	-0.6247444
5	100	1555432128	8.845	-34.648	1041.209	-2.560976	1.463415	0.3658537	-155	30	-227	0.7807781	-0.008636739	0.002349925	-0.6247445
5	100	1555432128	9.333	-36.417	1018.517	-2.926829	1.707317	0.4878049	-155	28	-228	0.7807783	-0.008636738	0.00225837	-0.6247444
5	100	1555432128	6.649	-33.062	1034.926	-2.560976	1.95122	0.3658537	-154	30	-228	0.780781	-0.008362073	0.002349925	-0.6247445
5	100	1555432129	11.224	-38.125	1025.898	-2.560976	1.829268	0.2439024	-155	31	-229	0.7807801	-0.008545183	0.001953185	-0.6247444
5	100	1555432129	6.71	-35.502	1023.092	-2.926829	1.707317	0.1219512	-156	31	-227	0.7807843	-0.008178961	0.001861629	-0.6247445
5	100	1555432129	4.026	-31.354	1024.434	-2.926829	1.707317	0.6097561	-155	30	-230	0.7807856	-0.008026368	0.001953185	-0.6247444
5	100	1555432129	4.941	-36.6	998.387	-2.804878	1.829268	0.2439024	-154	30	-229	0.7807848	-0.008087405	0.002014222	-0.6247444
5	100	1555432129	4.636	-32.635	1024.068	-2.804878	1.585366	0.2439024	-156	28	-228	0.7807891	-0.007629627	0.002136296	-0.6247444
5	100	1555432129	4.697	-36.661	1018.456	-2.804878	1.463415	0.3658537	-153	30	-229	0.780789	-0.007477035	0.00265511	-0.6247444
5	100	1555432129	1.586	-32.208	1041.392	-2.439024	1.219512	0.3658537	-155	29	-228	0.7807912	-0.007049776	0.003143406	-0.6247444
5	100	1555432129	5.612	-39.894	1035.414	-2.804878	1.219512	0.4878049	-154	30	-228	0.780789	-0.007232887	0.003265481	-0.6247444
5	100	1555432129	-7.442	-33.489	1001.315	-2.804878	1.341463	0.3658537	-155	30	-228	0.7807887	-0.007110813	0.003601184	-0.6247445
5	100	1555432129	2.806	-32.513	1025.105	-2.560976	1.097561	0.3658537	-153	30	-228	0.7807872	-0.007324442	0.00347911	-0.6247444
5	100	1555432129	-0.488	-30.744	1011.685	-2.682927	1.219512	0.3658537	-155	29	-229	0.7807895	-0.007232887	0.003143406	-0.6247444
5	100	1555432129	1.037	-31.964	1017.663	-2.439024	1.219512	0.2439024	-154	28	-229	0.7807909	-0.00717185	0.002929777	-0.6247444
5	100	1555432129	11.773	-29.829	1018.212	-2.804878	1.463415	0.4878049	-155	29	-227	0.7807941	-0.006958221	0.002563555	-0.6247445
5	100	1555432129	10.797	-29.28	1045.967	-2.804878	1.585366	0.6097561	-156	30	-225	0.7807937	-0.007141331	0.002136296	-0.6247444
5	100	1555432129	2.989	-40.138	1021.384	-2.682927	1.341463	0.3658537	-157	29	-229	0.7807926	-0.007293924	0.00204474	-0.6247445
5	100	1555432129	3.111	-35.624	1021.567	-2.682927	1.341463	0.3658537	-156	29	-228	0.7807922	-0.007293923	0.002136295	-0.6247444
5	100	1555432129	1.464	-35.868	1020.103	-2.804878	1.463415	0.4878049	-155	27	-228	0.7807918	-0.007354961	0.002136296	-0.6247444
5	100	1555432129	-2.562	-37.698	1006.561	-2.804878	1.219512	0.4878049	-154	28	-228	0.780812	-0.007599109	0.002716147	-0.6247139
5	100	1555432129	12.566	-35.868	1021.872	-2.682927	1.585366	0.2439024	-154	30	-227	0.7808103	-0.007721183	0.00286874	-0.6247139
5	100	1555432129	6.832	-35.075	1019.737	-2.804878	1.707317	0.4878049	-155	29	-228	0.7808092	-0.007660146	0.003295999	-0.6247139
5	100	1555432129	-0.244	-35.258	1023.031	-2.926829	1.463415	0.3658537	-156	29	-228	0.7808128	-0.007324442	0.003204443	-0.6247139
5	100	1555432129	-0.732	-35.014	1025.654	-2.804878	1.585366	0.6097561	-155	30	-226	0.7808129	-0.007324442	0.003173925	-0.6247139
5	100	1555432129	-1.952	-36.966	1035.353	-2.560976	1.585366	0.3658537	-156	30	-228	0.7808118	-0.007507553	0.003021332	-0.6247139
5	100	1555432129	8.479	-35.075	1005.951	-2.560976	1.829268	0.4878049	-155	29	-229	0.7808105	-0.007812738	0.002533036	-0.6247139
5	100	1555432129	5.734	-30.5	1013.21	-2.804878	1.341463	0.1219512	-155	28	-227	0.7808101	-0.007873775	0.002471999	-0.6247139
5	100	1555432129	14.579	-33.611	1023.336	-2.560976	1.585366	0.8536586	-155	30	-227	0.7808324	-0.008117924	0.002349925	-0.6246834
5	100	1555432129	2.379	-36.722	1021.811	-2.804878	1.463415	0.2439024	-154	31	-228	0.7808305	-0.008301035	0.002349925	-0.6246834
5	100	1555432129	7.015	-35.014	1027.484	-2.804878	1.585366	0.2439024	-155	29	-227	0.7808309	-0.008331553	0.002105777	-0.6246834
5	100	1555432129	2.867	-40.809	1019.493	-2.804878	1.463415	0.1219512	-156	29	-228	0.780827	-0.008636739	0.002319407	-0.6246834
5	100	1555432129	-1.83	-37.759	1018.273	-2.560976	1.585366	0.2439024	-155	29	-226	0.7808233	-0.008880886	0.002594073	-0.6246834
5	100	1555432129	3.782	-37.027	996.496	-2.560976	0.8536586	0.3658537	-156	29	-229	0.7808227	-0.008911405	0.002685629	-0.6246834
5	100	1555432129	5.673	-32.574	1018.578	-3.04878	1.341463	0.1219512	-153	30	-226	0.7808267	-0.008545183	0.002685629	-0.6246834
5	100	1555432129	17.141	-34.709	1036.756	-2.804878	1.341463	0.1219512	-154	28	-228	0.7808266	-0.008575702	0.002655111	-0.6246834
5	100	1555432129	7.564	-39.65	1034.56	-2.804878	1.707317	0.2439024	-154	30	-227	0.7808238	-0.008850368	0.002563555	-0.6246834
5	100	1555432129	6.893	-34.16	1021.933	-2.804878	1.707317	0.2439024	-155	30	-228	0.7808247	-0.008850369	0.002288888	-0.6246834
5	100	1555432129	5.673	-36.722	1018.761	-2.804878	1.707317	0.4878049	-154	29	-228	0.7808241	-0.008972441	0.001953184	-0.6246833
5	100	1555432129	4.453	-26.901	1016.687	-2.804878	1.585366	0.4878049	-155	28	-228	0.7808273	-0.008819849	0.001281777	-0.6246834
5	100	1555432129	6.405	-33.55	1005.89	-3.04878	1.829268	0.3658537	-154	30	-227	0.780832	-0.008423109	0.001068148	-0.6246834
5	100	1555432129	3.233	-30.5	1003.694	-2.804878	1.463415	0.2439024	-157	29	-228	0.7808335	-0.008270516	0.001159703	-0.6246834
5	100	1555432129	5.795	-33.245	1045.662	-2.926829	1.341463	0.1219512	-156	29	-227	0.7808321	-0.00839259	0.001251259	-0.6246834
5	100	1555432129	8.357	-36.783	1020.896	-2.682927	1.341463	0.3658537	-156	30	-228	0.7808311	-0.008423109	0.001586962	-0.6246834
5	100	1555432129	-0.915	-42.151	1021.567	-2.682927	1.341463	0.3658537	-153	32	-227	0.7808272	-0.008667257	0.002105777	-0.6246834
5	100	1555432129	2.745	-40.992	1013.027	-2.926829	1.463415	0.4878049	-156	28	-228	0.7808242	-0.00878933	0.002624592	-0.6246833
5	100	1555432129	1.037	-32.025	1011.624	-2.560976	1.463415	0.3658537	-152	30	-226	0.7808268	-0.008514664	0.002777184	-0.6246834
5	100	1555432129	7.93	-37.454	997.411	-2.926829	1.219512	0	-156	28	-226	0.7808055	-0.008423109	0.002105777	-0.6247139
5	100	1555432129	9.089	-25.742	1016.016	-2.804878	1.219512	0.6097561	-154	30	-228	0.7808331	-0.008239998	0.001586962	-0.6246834
5	100	1555432129	7.747	-35.868	1016.931	-2.682927	1.341463	0.3658537	-157	28	-229	0.7808339	-0.008148442	0.001648	-0.6246834
5	100	1555432129	7.686	-42.822	1019.371	-2.682927	1.463415	0.2439024	-154	29	-227	0.7808316	-0.008362072	0.001678518	-0.6246834
5	100	1555432129	3.721	-37.942	1019.737	-2.682927	1.585366	0.2439024	-156	30	-229	0.7808293	-0.008575701	0.001648	-0.6246834
5	100	1555432129	6.161	-36.783	1028.216	-2.682927	1.219512	0.3658537	-155	29	-228	0.7808263	-0.008850368	0.001648	-0.6246834
5	100	1555432129	1.769	-36.844	1039.135	-2.682927	1.707317	0.1219512	-155	29	-228	0.7808248	-0.008941923	0.001831111	-0.6246834
5	100	1555432129	12.627	-36.356	998.448	-2.682927	1.585366	0.6097561	-156	29	-228	0.780822	-0.00921659	0.001678518	-0.6246834
5	100	1555432129	6.283	-32.086	996.496	-2.560976	1.463415	0.2439024	-156	29	-229	0.7808262	-0.008880886	0.001495407	-0.6246834
5	100	1555432129	17.568	-36.966	1017.785	-2.682927	1.219512	0.3658537	-155	28	-228	0.7808479	-0.009094516	0.001617481	-0.6246529
5	100	1555432129	6.283	-42.212	1017.785	-2.804878	1.219512	0.2439024	-155	29	-227	0.7808224	-0.009155553	0.001800592	-0.6246834
5	100	1555432129	4.697	-35.136	1035.902	-2.682927	1.585366	0.2439024	-154	31	-227	0.780824	-0.008972442	0.002014222	-0.6246834
5	100	1555432129	6.71	-38.43	1018.273	-2.317073	1.585366	0.4878049	-156	29	-229	0.7808223	-0.009155553	0.001831111	-0.6246834
5	100	1555432129	-1.83	-36.295	1039.501	-2.682927	1.707317	0.3658537	-156	28	-228	0.7808231	-0.009063998	0.001983703	-0.6246834
5	100	1555432129	12.383	-34.831	996.435	-2.804878	1.585366	0.4878049	-155	31	-228	0.7808461	-0.009308145	0.001251259	-0.6246529
5	100	1555432129	10.248	-32.574	1008.818	-2.560976	1.463415	0.3658537	-156	30	-227	0.7808468	-0.009277628	0.001007111	-0.6246529
5	100	1555432129	12.261	-31.842	1027.057	-2.560976	1.341463	0.3658537	-156	28	-228	0.7808467	-0.009308145	0.0008239998	-0.6246529
5	100	1555432129	10.248	-36.295	1017.48	-2.560976	1.463415	0.2439024	-155	30	-228	0.780848	-0.009094515	0.001556444	-0.6246528
5	100	1555432129	-0.671	-37.21	1026.081	-2.560976	1.707317	0.2439024	-156	28	-230	0.7808267	-0.008758812	0.001892148	-0.6246834
5	100	1555432129	2.135	-39.101	1020.469	-2.560976	1.585366	0.4878049	-154	29	-228	0.7808273	-0.008636738	0.002197333	-0.6246834
5	100	1555432129	-0.488	-34.892	1030.9	-2.439024	1.707317	0	-156	29	-231	0.7808273	-0.00860622	0.002288888	-0.6246834
5	100	1555432129	9.638	-34.343	1009.916	-2.804878	1.585366	0.2439024	-155	29	-229	0.7808269	-0.008728294	0.001953185	-0.6246834
5	100	1555432129	3.965	-33.794	1013.393	-2.439024	1.585366	0.3658537	-156	28	-229	0.7808276	-0.008728294	0.001648	-0.6246834
5	100	1555432129	16.409	-33.428	1028.277	-2.804878	1.585366	0.4878049	-155	30	-228	0.7808518	-0.008819849	0.00122074	-0.6246529
5	100	1555432129	12.871	-34.038	1014.43	-2.682927	1.585366	0.4878049	-155	29	-230	0.7808526	-0.008758813	0.001190222	-0.6246529
5	100	1555432129	1.281	-39.284	1023.397	-2.682927	1.463415	0.2439024	-154	30	-226	0.7808508	-0.008880886	0.001373333	-0.6246529
5	100	1555432129	7.808	-37.088	1025.471	-2.804878	1.829268	0.4878049	-153	30	-228	0.7808511	-0.008880886	0.00122074	-0.6246529
5	100	1555432129	5.551	-38.796	1022.36	-2.560976	1.829268	0	-155	30	-228	0.7808275	-0.008758812	0.001525925	-0.6246834
5	100	1555432129	6.039	-34.892	1017.114	-2.682927	1.707317	0.2439024	-154	29	-228	0.780831	-0.008392591	0.001831111	-0.6246834
5	100	1555432129	4.636	-37.698	1009.855	-2.682927	1.585366	0.3658537	-154	30	-225	0.7808313	-0.008270516	0.002197333	-0.6246834
5	100	1555432129	5.49	-33.672	1014.186	-2.682927	1.707317	0.4878049	-156	29	-230	0.7808357	-0.007843257	0.002197333	-0.6246834
5	100	1555432129	13.481	-33.916	1011.624	-2.560976	1.707317	0.3658537	-157	31	-228	0.7808605	-0.007812738	0.002166814	-0.6246529
5	100	1555432129	2.379	-33.672	1029.68	-2.560976	1.707317	0.4878049	-154	29	-228	0.7808369	-0.007629626	0.002471999	-0.6246833
5	100	1555432129	1.403	-36.844	1031.937	-2.682927	1.829268	0.2439024	-154	32	-228	0.7808384	-0.007446516	0.002563555	-0.6246834
5	100	1555432129	-2.989	-38.674	1025.166	-2.682927	2.073171	0.2439024	-156	29	-228	0.7808383	-0.007415998	0.002685629	-0.6246834
5	100	1555432129	7.991	-32.452	1021.445	-2.439024	2.073171	0.1219512	-155	29	-229	0.78084	-0.007293924	0.002533036	-0.6246834
5	100	1555432129	9.516	-33.367	996.13	-2.560976	2.195122	0.4878049	-157	31	-228	0.7808374	-0.007599109	0.002441481	-0.6246834
5	100	1555432129	14.457	-33.367	1006.317	-2.560976	1.95122	0.1219512	-156	29	-228	0.7808359	-0.007873775	0.001983703	-0.6246834
5	100	1555432129	6.405	-36.539	1010.038	-2.804878	2.073171	0.6097561	-155	28	-228	0.780861	-0.007751701	0.002197333	-0.6246529
5	100	1555432129	2.501	-30.744	1026.935	-2.560976	2.073171	0.4878049	-155	30	-228	0.7808632	-0.007415998	0.002563555	-0.6246529
5	100	1555432129	3.477	-38.43	1013.271	-2.439024	1.585366	0.1219512	-155	28	-227	0.7808639	-0.007263405	0.002777184	-0.6246529
5	100	1555432129	-4.758	-31.476	1015.772	-2.439024	1.95122	0.2439024	-152	30	-228	0.7808422	-0.006836146	0.003051851	-0.6246834
5	100	1555432129	2.013	-28.243	1023.824	-2.560976	1.707317	0.2439024	-156	28	-229	0.7808465	-0.006286813	0.003143406	-0.6246834
5	100	1555432129	2.623	-33.794	1014.796	-2.560976	2.073171	0.3658537	-154	32	-228	0.7808454	-0.006439405	0.003112888	-0.6246834
5	100	1555432129	6.832	-29.036	1008.208	-2.560976	2.073171	0.3658537	-155	30	-229	0.7808477	-0.006225776	0.002960295	-0.6246834
5	100	1555432129	7.137	-30.988	996.984	-2.560976	1.95122	0.6097561	-155	30	-228	0.7808474	-0.00656148	0.002227851	-0.6246834
5	100	1555432129	7.686	-30.866	1006.988	-2.926829	1.95122	0.2439024	-155	30	-229	0.7808455	-0.006866665	0.001953185	-0.6246834
5	100	1555432129	6.161	-33.428	1023.641	-2.439024	1.585366	0.4878049	-155	30	-229	0.7808465	-0.006775109	0.001861629	-0.6246834
5	100	1555432129	-0.183	-37.332	1019.554	-2.804878	1.341463	0.2439024	-156	31	-229	0.7808435	-0.007019257	0.002197333	-0.6246834
5	100	1555432129	-5.368	-41.785	1030.778	-2.682927	1.829268	0.6097561	-155	29	-230	0.7808627	-0.00738548	0.002777185	-0.6246529
5	100	1555432129	5.49	-40.443	988.871	-2.804878	1.463415	0.4878049	-152	29	-228	0.7808556	-0.008026368	0.002990814	-0.6246529
5	100	1555432129	-0.183	-33.428	994.3	-2.560976	1.341463	0.2439024	-155	29	-227	0.780852	-0.008239998	0.003326518	-0.6246529
5	100	1555432129	16.409	-30.378	1026.569	-2.682927	1.707317	0	-155	28	-227	0.7808272	-0.008239998	0.003418073	-0.6246834
5	100	1555432129	14.396	-33.977	1015.345	-2.560976	1.707317	0.3658537	-155	29	-227	0.7808304	-0.008056886	0.003112888	-0.6246834
5	100	1555432130	4.575	-29.89	1025.288	-2.682927	1.341463	0.3658537	-156	30	-228	0.7808363	-0.007629626	0.00265511	-0.6246833
5	100	1555432130	5.551	-42.09	1019.676	-2.926829	1.341463	0.4878049	-153	29	-228	0.7808381	-0.007599108	0.002166814	-0.6246833
5	100	1555432130	3.294	-29.219	1030.412	-2.682927	1.707317	0.3658537	-154	29	-228	0.7808406	-0.007446516	0.001800592	-0.6246834
5	100	1555432130	3.477	-33.916	1001.01	-2.804878	1.585366	0.3658537	-155	31	-228	0.7808384	-0.007629627	0.001953185	-0.6246834
5	100	1555432130	1.281	-32.757	995.52	-2.804878	1.341463	0.2439024	-155	29	-228	0.7808352	-0.007995849	0.001800592	-0.6246834
5	100	1555432130	14.213	-30.073	1016.199	-2.682927	1.829268	0.2439024	-155	29	-228	0.7808347	-0.008117924	0.001373333	-0.6246834
5	100	1555432130	8.601	-37.454	1008.208	-2.804878	1.219512	0.3658537	-155	29	-226	0.7808315	-0.008362072	0.001709037	-0.6246834
5	100	1555432130	-2.562	-35.502	1021.872	-2.682927	1.219512	0.2439024	-154	29	-228	0.78083	-0.008423109	0.002075259	-0.6246834
5	100	1555432130	0.671	-38.735	1023.214	-2.804878	1.219512	0.3658537	-156	30	-227	0.7808301	-0.008331552	0.002349925	-0.6246833
5	100	1555432130	-7.015	-35.807	1018.7	-2.804878	1.463415	0.4878049	-154	29	-228	0.7808068	-0.008026368	0.002960295	-0.6247139
5	100	1555432130	8.113	-35.746	996.74	-2.926829	1.219512	0.4878049	-155	29	-227	0.7808061	-0.008026368	0.003143406	-0.6247139
5	100	1555432130	2.623	-32.086	1002.108	-2.804878	1.341463	0.3658537	-154	29	-228	0.7808068	-0.007904294	0.003295999	-0.6247139
5	100	1555432130	17.568	-34.404	1023.763	-2.560976	1.585366	0.1219512	-155	31	-228	0.7808065	-0.007995849	0.003112887	-0.6247138
5	100	1555432130	8.235	-29.951	1013.881	-2.682927	1.585366	0.3658537	-154	29	-228	0.7808077	-0.008056886	0.002624592	-0.6247139
5	100	1555432130	11.407	-31.964	1015.162	-2.926829	1.219512	0.4878049	-154	30	-226	0.780808	-0.008301035	0.001586962	-0.6247139
5	100	1555432130	10.431	-33.489	1004.487	-2.804878	1.341463	0.4878049	-154	30	-228	0.7808059	-0.008575701	0.001037629	-0.6247139
5	100	1555432130	-0.427	-33.794	1014.796	-3.04878	1.341463	0.3658537	-155	29	-226	0.7808042	-0.008728294	0.001068148	-0.6247139
5	100	1555432130	13.725	-35.929	1007.72	-2.560976	1.463415	0.3658537	-155	32	-228	0.780802	-0.008911405	0.001190222	-0.6247139
5	100	1555432130	10.797	-34.465	1013.698	-2.560976	1.463415	0.3658537	-155	30	-227	0.7808006	-0.00900296	0.001342814	-0.6247139
5	100	1555432130	15.494	-36.6	1023.519	-2.682927	1.341463	0.2439024	-155	30	-230	0.7807999	-0.009002959	0.001709036	-0.6247138
5	100	1555432130	7.259	-36.905	1008.025	-2.560976	1.95122	0.3658537	-155	30	-227	0.7807987	-0.009063997	0.001922666	-0.6247139
5	100	1555432130	7.015	-39.711	1008.513	-2.804878	1.585366	0.1219512	-156	30	-228	0.7807989	-0.009094516	0.001709037	-0.6247139
5	100	1555432130	0.671	-37.332	1007.72	-2.682927	1.463415	0.3658537	-155	28	-228	0.7808015	-0.008850368	0.001800592	-0.6247139
5	100	1555432130	3.538	-29.341	1012.661	-2.926829	1.463415	0.2439024	-154	31	-228	0.7807829	-0.008270516	0.00204474	-0.6247444
5	100	1555432130	4.087	-35.685	995.825	-3.170732	1.585366	0.3658537	-156	30	-228	0.7808099	-0.008056886	0.001892148	-0.6247139
5	100	1555432130	2.745	-32.452	1012.539	-2.804878	1.219512	0.2439024	-155	30	-229	0.7807872	-0.007873775	0.001953185	-0.6247444
5	100	1555432130	6.466	-29.768	1021.079	-2.682927	1.707317	0.3658537	-156	30	-227	0.7807872	-0.007873775	0.001953185	-0.6247444
5	100	1555432130	3.233	-35.258	1011.136	-2.804878	1.829268	0.1219512	-155	30	-228	0.7807848	-0.007995849	0.002349925	-0.6247444
5	100	1555432130	0.061	-34.221	1026.63	-2.804878	1.341463	0.2439024	-156	29	-227	0.7807859	-0.007812738	0.002624592	-0.6247444
5	100	1555432130	11.285	-34.221	1029.863	-2.804878	1.707317	0.1219512	-153	29	-228	0.780785	-0.007965331	0.002410962	-0.6247444
5	100	1555432130	6.527	-36.417	1023.519	-2.682927	1.341463	0.2439024	-155	29	-228	0.7807819	-0.008331553	0.002136296	-0.6247444
5	100	1555432130	4.758	-32.452	1012.234	-2.804878	1.097561	0.2439024	-155	30	-229	0.7807816	-0.00842311	0.001922666	-0.6247445
5	100	1555432130	4.575	-28.304	1018.334	-2.682927	1.219512	0.2439024	-156	28	-228	0.7807634	-0.007812738	0.001922666	-0.6247749
5	100	1555432130	5.063	-32.086	985.333	-2.926829	1.219512	0.3658537	-155	30	-228	0.780764	-0.007751701	0.001922666	-0.6247749
5	100	1555432130	3.233	-30.439	942.328	-3.292683	0.8536586	0.4878049	-155	28	-228	0.7807702	-0.007080294	0.002014222	-0.6247749
5	100	1555432130	4.453	-32.574	1025.166	-2.439024	0.4878049	0.3658537	-155	29	-228	0.7807716	-0.006958221	0.001892148	-0.624775
5	100	1555432130	4.88	-34.648	1064.938	-2.804878	0.9756098	0.1219512	-155	30	-228	0.7807703	-0.006958221	0.002380444	-0.624775
5	100	1555432130	9.211	-36.295	1053.897	-2.804878	2.073171	0.2439024	-155	29	-229	0.7807673	-0.007263406	0.002441481	-0.624775
5	100	1555432130	7.625	-41.846	986.98	-2.682927	2.073171	0.3658537	-157	27	-229	0.7807618	-0.007904294	0.002197333	-0.6247749
5	100	1555432130	12.017	-27.389	991.433	-2.804878	1.829268	0.3658537	-155	32	-230	0.780759	-0.00839259	0.001098666	-0.6247749
5	100	1555432130	17.202	-31.354	974.658	-2.682927	1.585366	0.1219512	-157	29	-227	0.7807598	-0.008392591	0.0001525926	-0.624775
5	100	1555432130	11.956	-22.265	997.106	-2.682927	1.707317	0.7317073	-154	30	-228	0.7807604	-0.008331553	-3.051851E-05	-0.6247749
5	100	1555432130	2.623	-33.001	999.119	-2.804878	1.341463	0.1219512	-156	30	-229	0.7807658	-0.007812738	0	-0.6247749
5	100	1555432130	-4.88	-41.236	1037.305	-2.926829	1.219512	0.3658537	-154	30	-227	0.7807651	-0.007751702	0.00143437	-0.624775
5	100	1555432130	-2.318	-39.528	1031.327	-2.804878	0.8536586	0.1219512	-157	28	-227	0.7807398	-0.00738548	0.003021333	-0.6248055
5	100	1555432130	-20.13	-44.042	1000.461	-2.317073	1.341463	0.4878049	-155	30	-228	0.780731	-0.007263405	0.004943999	-0.6248055
5	100	1555432130	-6.466	-28.609	995.52	-2.804878	1.95122	0.1219512	-156	29	-230	0.780706	-0.006927702	0.005493332	-0.624836
5	100	1555432130	1.403	-33.062	1001.376	-2.682927	1.585366	0.3658537	-155	29	-228	0.7807097	-0.006805628	0.005096591	-0.624836
5	100	1555432130	15.921	-25.254	1012.844	-2.560976	1.219512	0.1219512	-156	30	-228	0.7807401	-0.006927702	0.003875851	-0.6248055
5	100	1555432130	13.42	-27.816	1030.9	-2.804878	0.3658537	0.2439024	-153	30	-228	0.7807235	-0.006714073	0.002441481	-0.624836
5	100	1555432130	4.209	-29.951	1029.375	-2.682927	0.7317073	-0.1219512	-156	28	-227	0.7807252	-0.006744591	0.001617481	-0.624836
5	100	1555432130	11.285	-35.746	1027.545	-3.170732	1.341463	0.2439024	-156	30	-229	0.7807193	-0.007507553	0.0009765923	-0.624836
5	100	1555432130	2.135	-40.382	997.777	-2.804878	1.341463	0.1219512	-156	31	-227	0.7807133	-0.008117924	0.0009460738	-0.624836
5	100	1555432130	10.553	-32.757	1015.528	-3.04878	1.585366	0.2439024	-154	30	-228	0.7807104	-0.00842311	0.0007019258	-0.624836
5	100	1555432130	12.627	-30.012	1015.894	-2.804878	1.707317	0.3658537	-156	32	-227	0.7807063	-0.008789331	0.0005798517	-0.624836
5	100	1555432130	4.758	-32.574	1014.735	-2.804878	1.585366	0.4878049	-154	29	-226	0.7807123	-0.008239997	0.0005493331	-0.6248359
5	100	1555432130	15.189	-33.123	999.058	-2.926829	1.585366	0.1219512	-156	29	-237	0.780715	-0.007965331	0.0007629627	-0.624836
5	100	1555432130	-3.416	-39.406	1012.356	-2.560976	1.463415	0.4878049	-154	29	-229	0.7806938	-0.007477036	0.001800592	-0.6248665
5	100	1555432130	11.041	-34.892	1023.092	-2.926829	1.341463	0.4878049	-156	29	-229	0.7806923	-0.007507553	0.002227851	-0.6248665
5	100	1555432130	-2.196	-38.918	1015.101	-2.682927	1.341463	0.3658537	-154	29	-227	0.7806898	-0.007629626	0.002624592	-0.6248664
5	100	1555432130	1.037	-34.404	1019.554	-2.804878	1.463415	0.3658537	-156	29	-228	0.7806891	-0.007690664	0.002685629	-0.6248665
5	100	1555432130	12.566	-37.942	1008.818	-2.804878	1.95122	0.1219512	-153	29	-227	0.7806871	-0.008026368	0.00225837	-0.6248665
5	100	1555432130	15.006	-29.89	1003.45	-2.682927	1.707317	0.3658537	-158	28	-229	0.7807108	-0.008178961	0.001922666	-0.624836
5	100	1555432130	20.374	-34.099	1011.624	-2.560976	0.8536586	0.1219512	-154	30	-227	0.7807078	-0.008575701	0.001312296	-0.624836
5	100	1555432130	13.176	-37.088	1008.452	-2.804878	1.097561	0.4878049	-157	29	-228	0.7807029	-0.009033479	0.001159703	-0.624836
5	100	1555432130	-2.379	-39.528	1012.539	-2.682927	1.341463	0.2439024	-155	30	-228	0.7806774	-0.00903348	0.001800592	-0.6248665
5	100	1555432130	-1.647	-40.321	1025.959	-2.804878	1.707317	0.1219512	-155	30	-226	0.7806742	-0.009186071	0.002288888	-0.6248665
5	100	1555432130	-4.087	-39.833	1023.214	-2.804878	1.707317	0.4878049	-155	29	-228	0.7806759	-0.008911405	0.002746666	-0.6248665
5	100	1555432130	4.941	-33.977	1014.186	-2.682927	1.707317	0.2439024	-156	30	-229	0.7806571	-0.00839259	0.002807703	-0.624897
5	100	1555432130	13.908	-29.646	1003.206	-3.04878	1.463415	0.2439024	-156	29	-228	0.780661	-0.008239998	0.002075259	-0.6248971
5	100	1555432130	10.98	-24.278	1003.755	-2.804878	1.585366	0.1219512	-156	30	-231	0.7806643	-0.007995849	0.001770074	-0.624897
5	100	1555432130	15.25	-30.5	1014.43	-2.804878	1.585366	0.4878049	-156	30	-229	0.7806861	-0.008362072	0.001068148	-0.6248665
5	100	1555432130	11.773	-35.929	1021.628	-2.560976	1.219512	0.3658537	-155	29	-228	0.7806804	-0.008880886	0.001037629	-0.6248665
5	100	1555432130	5.307	-34.404	1023.275	-2.804878	1.829268	0.3658537	-155	29	-227	0.7806544	-0.00900296	0.001159703	-0.624897
5	100	1555432130	0.244	-40.077	1022.909	-2.682927	1.829268	0.4878049	-157	29	-228	0.7806771	-0.009125034	0.001373333	-0.6248665
5	100	1555432130	2.623	-34.282	1010.343	-2.926829	1.463415	0.3658537	-155	31	-228	0.7806568	-0.008697775	0.001739555	-0.624897
5	100	1555432130	3.538	-35.197	1015.894	-2.804878	1.463415	0.3658537	-156	29	-228	0.78066	-0.008301035	0.002197333	-0.624897
5	100	1555432130	6.161	-33.062	985.882	-2.682927	1.585366	0.4878049	-155	30	-228	0.780661	-0.008178961	0.002288888	-0.624897
5	100	1555432130	6.161	-32.574	1007.903	-2.682927	1.341463	0.1219512	-156	29	-229	0.7806645	-0.00778222	0.002471999	-0.624897
5	100	1555432130	6.405	-32.147	1013.332	-3.04878	1.463415	0.3658537	-155	30	-226	0.7806664	-0.007538072	0.002624592	-0.624897
5	100	1555432130	7.015	-39.528	1017.968	-2.804878	1.463415	0.2439024	-157	29	-228	0.7806645	-0.007812738	0.002380444	-0.624897
5	100	1555432130	2.196	-33.672	1018.456	-2.682927	1.341463	0.4878049	-154	30	-228	0.7806647	-0.007751701	0.002502518	-0.624897
5	100	1555432130	6.954	-41.175	1019.432	-2.682927	1.341463	0.3658537	-155	28	-229	0.7806612	-0.008148442	0.002349925	-0.624897
5	100	1555432130	3.965	-38.247	1020.957	-2.560976	1.585366	0.4878049	-156	30	-228	0.7806581	-0.008453627	0.002288888	-0.624897
5	100	1555432130	5.673	-27.267	1015.162	-2.439024	1.463415	0.3658537	-155	29	-228	0.7806609	-0.008270516	0.001953185	-0.624897
5	100	1555432130	14.945	-33.062	993.446	-2.804878	1.707317	0.3658537	-155	30	-228	0.7806596	-0.008484146	0.001525925	-0.624897
5	100	1555432130	13.603	-33.001	993.934	-2.682927	1.707317	0.2439024	-157	29	-228	0.7806596	-0.008545183	0.001190222	-0.624897
5	100	1555432130	16.165	-36.6	1033.95	-2.560976	1.707317	0.3658537	-155	30	-226	0.7806565	-0.00881985	0.001251259	-0.6248971
5	100	1555432130	6.161	-37.942	1015.833	-2.439024	1.463415	0.2439024	-157	28	-227	0.7806318	-0.008819849	0.001312296	-0.6249275
5	100	1555432130	3.477	-36.6	1022.299	-2.560976	1.463415	0.2439024	-154	30	-228	0.7806349	-0.008514665	0.001495407	-0.6249276
5	100	1555432130	-3.355	-38.735	1011.014	-2.560976	1.829268	0.3658537	-157	29	-227	0.78064	-0.007965331	0.001831111	-0.6249275
5	100	1555432130	-0.854	-30.256	1011.99	-2.439024	1.463415	0.2439024	-154	30	-227	0.7806461	-0.007232887	0.002227851	-0.6249275
5	100	1555432130	7.259	-31.964	1016.077	-2.560976	1.585366	0.3658537	-155	29	-227	0.7806479	-0.007080295	0.002105777	-0.6249276
5	100	1555432130	4.392	-35.136	1008.086	-2.804878	1.219512	0.2439024	-153	30	-225	0.7806447	-0.00738548	0.002227851	-0.6249276
5	100	1555432130	8.479	-33.306	1009.428	-2.682927	1.341463	0.1219512	-156	29	-228	0.7806422	-0.007629627	0.00225837	-0.6249275
5	100	1555432130	16.165	-37.515	1025.166	-2.560976	1.463415	0.2439024	-154	30	-227	0.7806346	-0.008362073	0.002319407	-0.6249276
5	100	1555432130	10.98	-35.319	1017.236	-2.804878	1.707317	0.4878049	-156	31	-228	0.7806325	-0.00860622	0.002105777	-0.6249275
5	100	1555432130	-1.403	-35.807	1034.804	-2.926829	1.707317	0.3658537	-155	30	-226	0.7806342	-0.008484146	0.001953185	-0.6249275
5	100	1555432131	8.479	-34.892	1016.87	-2.804878	1.463415	0.3658537	-156	29	-228	0.7806351	-0.008484145	0.001525925	-0.6249275
5	100	1555432131	-0.549	-33.672	1012.539	-2.682927	1.463415	0	-154	28	-228	0.7806363	-0.00839259	0.001495407	-0.6249275
5	100	1555432131	-1.525	-35.807	1024.922	-2.560976	1.585366	0.2439024	-158	29	-228	0.7806383	-0.008239998	0.001281777	-0.6249275
5	100	1555432131	16.775	-36.966	1004.487	-2.560976	1.585366	0.1219512	-155	28	-228	0.7806354	-0.008575702	0.0007324443	-0.6249276
5	100	1555432131	1.586	-36.966	1005.158	-2.560976	1.585366	0.3658537	-159	30	-230	0.7806355	-0.008545183	0.0008850368	-0.6249275
5	100	1555432131	9.577	-31.72	1012.905	-2.682927	1.463415	0.1219512	-154	32	-226	0.7806399	-0.008117924	0.001037629	-0.6249275
5	100	1555432131	8.479	-37.576	1008.269	-2.682927	1.707317	0.2439024	-155	28	-228	0.7806412	-0.007965332	0.001251259	-0.6249276
5	100	1555432131	1.952	-33.184	1012.722	-2.682927	1.585366	0.4878049	-154	31	-228	0.7806411	-0.007965332	0.001312296	-0.6249276
5	100	1555432131	12.261	-36.844	1023.214	-2.682927	1.585366	0.2439024	-154	28	-228	0.7806372	-0.008362072	0.001129185	-0.6249275
5	100	1555432131	4.27	-38.796	1014.186	-2.926829	1.341463	0.2439024	-156	30	-228	0.7806326	-0.008728294	0.001464888	-0.6249275
5	100	1555432131	-4.575	-36.051	1020.774	-2.439024	1.341463	0.3658537	-154	28	-227	0.7806311	-0.008667258	0.002380444	-0.6249276
5	100	1555432131	12.383	-37.393	1011.258	-2.804878	1.585366	0.4878049	-155	30	-228	0.7806284	-0.008911405	0.002349925	-0.6249275
5	100	1555432131	-0.427	-34.16	1007.659	-2.560976	1.585366	0.4878049	-156	29	-228	0.780631	-0.008636738	0.002502518	-0.6249275
5	100	1555432131	10.126	-31.903	1013.515	-2.682927	1.829268	0.2439024	-155	31	-227	0.7806087	-0.008484146	0.002380444	-0.624958
5	100	1555432131	12.139	-35.99	1010.587	-2.560976	1.341463	0.2439024	-155	31	-228	0.7806126	-0.008178961	0.002136296	-0.624958
5	100	1555432131	4.209	-33.123	1023.641	-2.804878	1.463415	0.1219512	-157	30	-227	0.7806155	-0.007812738	0.002410962	-0.624958
5	100	1555432131	12.81	-36.234	1016.626	-2.804878	1.95122	0.2439024	-155	30	-226	0.7806141	-0.008087406	0.001922666	-0.6249581
5	100	1555432131	6.71	-36.905	1017.297	-2.682927	1.463415	0	-154	29	-229	0.7806112	-0.008392589	0.001739555	-0.624958
5	100	1555432131	6.71	-37.942	1018.944	-2.926829	1.219512	0.2439024	-156	30	-228	0.7806088	-0.008636738	0.001648	-0.624958
5	100	1555432131	4.209	-33.245	1012.356	-2.926829	1.463415	0.3658537	-153	30	-225	0.7805858	-0.008545183	0.00143437	-0.6249886
5	100	1555432131	11.529	-30.134	1010.831	-2.439024	1.829268	0.2439024	-158	30	-228	0.7805864	-0.008484146	0.001464888	-0.6249886
5	100	1555432131	8.54	-29.707	1006.561	-2.804878	1.585366	0.1219512	-155	31	-229	0.7805877	-0.008331554	0.001678518	-0.6249886
5	100	1555432131	9.943	-38.857	1021.567	-2.682927	1.829268	0.4878049	-156	31	-229	0.780587	-0.008423109	0.001495407	-0.6249886
5	100	1555432131	5.673	-39.894	1012.356	-2.439024	1.707317	0.3658537	-154	31	-227	0.7805855	-0.008545183	0.001586962	-0.6249886
5	100	1555432131	2.989	-37.454	1020.713	-2.804878	1.585366	0.6097561	-156	29	-228	0.7805842	-0.00860622	0.001892148	-0.6249886
5	100	1555432131	4.636	-37.637	1018.822	-2.804878	1.463415	0.2439024	-155	29	-227	0.7805845	-0.008667257	0.001464888	-0.6249886
5	100	1555432131	1.891	-34.648	1017.419	-2.439024	1.463415	0.3658537	-156	29	-228	0.7805877	-0.008270517	0.001953185	-0.6249886
5	100	1555432131	0.915	-33.855	1012.722	-2.926829	1.463415	0.4878049	-155	29	-228	0.7805912	-0.007904294	0.00204474	-0.6249886
5	100	1555432131	9.821	-32.147	986.553	-2.682927	1.463415	0.4878049	-156	28	-231	0.7805905	-0.008056886	0.001709037	-0.6249886
5	100	1555432131	5.429	-32.269	1008.94	-2.804878	1.463415	0.3658537	-155	29	-229	0.7805911	-0.008026369	0.001586963	-0.6249886
5	100	1555432131	12.261	-36.844	1025.532	-2.682927	1.463415	0.3658537	-156	28	-228	0.7805869	-0.008423109	0.001556444	-0.6249886
5	100	1555432131	7.869	-33.55	1014.247	-2.317073	1.585366	0.4878049	-154	31	-228	0.7805871	-0.008453627	0.001251259	-0.6249886
5	100	1555432131	2.318	-35.868	1038.281	-2.804878	1.707317	0.3658537	-157	31	-228	0.7805867	-0.008453627	0.001495407	-0.6249886
5	100	1555432131	6.832	-36.356	1037.976	-2.804878	1.585366	0	-155	31	-228	0.7805887	-0.008239998	0.001648	-0.6249886
5	100	1555432131	-4.453	-36.417	994.971	-2.682927	1.585366	0.3658537	-156	29	-229	0.7805893	-0.00820948	0.001525926	-0.6249886
5	100	1555432131	3.904	-34.404	1008.696	-2.926829	1.585366	0.3658537	-154	30	-228	0.7805885	-0.008301035	0.001403851	-0.6249886
5	100	1555432131	9.76	-36.661	991.738	-2.682927	1.585366	0	-155	30	-228	0.7805858	-0.008575701	0.001251259	-0.6249886
5	100	1555432131	5.002	-35.014	1006.012	-2.682927	1.585366	0.3658537	-156	31	-227	0.7805843	-0.008667258	0.001525926	-0.6249886
5	100	1555432131	10.614	-31.964	1014.125	-2.804878	1.585366	0.2439024	-156	32	-228	0.7805853	-0.008575701	0.001495407	-0.6249886
5	100	1555432131	12.383	-31.964	1015.894	-2.804878	1.463415	0.3658537	-156	31	-227	0.7805868	-0.008392589	0.001739555	-0.6249885
5	100	1555432131	2.684	-30.317	1033.218	-2.804878	1.341463	0.6097561	-156	29	-229	0.7805904	-0.007965331	0.002136296	-0.6249886
5	100	1555432131	1.281	-38.125	1025.471	-2.682927	1.341463	0.2439024	-155	29	-228	0.78059	-0.007904294	0.002471999	-0.6249886
5	100	1555432131	-7.686	-39.101	996.862	-2.804878	1.341463	0.4878049	-157	29	-236	0.7805899	-0.007812738	0.002777184	-0.6249886
5	100	1555432131	7.32	-34.77	1008.818	-2.804878	1.707317	0.6097561	-156	31	-228	0.7805902	-0.007873776	0.002502518	-0.6249886
5	100	1555432131	11.346	-37.82	994.361	-2.560976	1.341463	0.1219512	-155	29	-228	0.7805882	-0.008178961	0.002136296	-0.6249886
5	100	1555432131	14.64	-33.428	1003.877	-2.804878	1.463415	0.1219512	-154	30	-228	0.7805873	-0.008331553	0.001861629	-0.6249886
5	100	1555432131	14.701	-35.38	1017.114	-2.682927	1.463415	0.3658537	-155	29	-228	0.780584	-0.008697775	0.001525925	-0.6249886
5	100	1555432131	9.699	-36.722	996.801	-2.804878	1.585366	0.2439024	-155	30	-227	0.7805858	-0.008453627	0.001922666	-0.6249886
5	100	1555432131	5.917	-33.855	1028.704	-2.682927	1.585366	0.2439024	-156	29	-227	0.7805898	-0.008056886	0.002014222	-0.6249886
5	100	1555432131	15.067	-35.807	1025.166	-2.682927	1.585366	0.2439024	-155	29	-228	0.7805899	-0.008117924	0.001678518	-0.6249886
5	100	1555432131	1.159	-34.465	1010.77	-2.682927	1.341463	0.7317073	-157	30	-228	0.7805902	-0.008087405	0.001678518	-0.6249886
5	100	1555432131	1.83	-38.186	1013.454	-2.682927	1.95122	0.4878049	-154	29	-228	0.7805884	-0.008209479	0.001892148	-0.6249886
5	100	1555432131	7.991	-36.051	999.485	-2.439024	1.829268	0.4878049	-156	31	-228	0.7805849	-0.00860622	0.001586962	-0.6249886
5	100	1555432131	-1.281	-38.369	1007.415	-3.04878	1.585366	0.3658537	-156	30	-227	0.7805837	-0.008697776	0.001648	-0.6249886
5	100	1555432131	10.675	-35.624	1017.236	-2.804878	1.219512	0.6097561	-157	29	-229	0.7805822	-0.008758812	0.002014222	-0.6249886
5	100	1555432131	18.605	-37.088	1012.539	-2.682927	1.463415	0.3658537	-156	31	-227	0.780583	-0.008728294	0.001831111	-0.6249886
5	100	1555432131	0.671	-33.733	1022.726	-2.804878	1.341463	0.4878049	-156	29	-229	0.7805883	-0.008178961	0.002105777	-0.6249886
5	100	1555432131	11.224	-35.807	1018.334	-2.560976	1.829268	0.2439024	-155	30	-228	0.7805908	-0.007904295	0.002227851	-0.6249886
5	100	1555432131	3.782	-35.563	1009.184	-2.682927	1.219512	0.3658537	-156	30	-227	0.7805911	-0.007873775	0.002197333	-0.6249886
5	100	1555432131	0.488	-33.306	1021.14	-2.804878	1.463415	0.3658537	-154	29	-228	0.7805908	-0.007934812	0.002105777	-0.6249886
5	100	1555432131	8.357	-32.574	1008.391	-2.560976	1.585366	0.3658537	-156	30	-228	0.7805889	-0.008178961	0.001831111	-0.6249886
5	100	1555432131	2.135	-31.11	1006.988	-2.682927	1.707317	0.3658537	-156	30	-228	0.7805909	-0.007995849	0.001800592	-0.6249886
5	100	1555432131	12.993	-32.086	1015.833	-2.804878	1.463415	0.3658537	-156	28	-230	0.7805915	-0.007934812	0.001800592	-0.6249886
5	100	1555432131	11.529	-32.33	1014.552	-2.682927	1.829268	0.3658537	-155	30	-227	0.7805939	-0.007721183	0.001709037	-0.6249886
5	100	1555432131	2.562	-36.295	1023.397	-2.804878	1.707317	0.2439024	-155	29	-228	0.7805927	-0.00778222	0.001953185	-0.6249886
5	100	1555432131	6.71	-35.563	1015.162	-2.682927	1.829268	0.1219512	-155	30	-227	0.7805906	-0.008056886	0.001648	-0.6249886
5	100	1555432131	-1.952	-37.576	1012.661	-2.804878	1.707317	0.4878049	-157	28	-228	0.780589	-0.008178961	0.001800592	-0.6249886
5	100	1555432131	3.233	-29.402	1015.223	-2.682927	1.463415	0.4878049	-154	30	-226	0.7805914	-0.007965332	0.001709037	-0.6249886
5	100	1555432131	7.137	-35.258	1006.073	-2.560976	1.707317	0.6097561	-155	29	-227	0.7806142	-0.008148442	0.001586962	-0.624958
5	100	1555432131	6.71	-28.182	1005.402	-3.04878	1.097561	0.2439024	-155	29	-227	0.7806171	-0.007873775	0.001556444	-0.624958
5	100	1555432131	11.163	-36.6	1008.818	-3.04878	1.463415	0.1219512	-155	30	-230	0.7806136	-0.008239998	0.001403851	-0.624958
5	100	1555432131	3.965	-39.406	1007.781	-2.682927	1.341463	0.2439024	-154	31	-228	0.780611	-0.008423109	0.001739555	-0.624958
5	100	1555432131	4.331	-35.38	1028.033	-2.804878	1.463415	0.3658537	-155	30	-228	0.7806119	-0.008239998	0.002136296	-0.624958
5	100	1555432131	1.037	-44.469	1020.103	-2.804878	1.341463	0.3658537	-154	31	-228	0.7806088	-0.008453627	0.002441481	-0.624958
5	100	1555432131	3.599	-37.454	1013.881	-2.804878	1.95122	0.1219512	-157	31	-227	0.78061	-0.008301035	0.002563555	-0.624958
5	100	1555432131	8.357	-29.036	1018.029	-2.682927	1.341463	0	-155	29	-228	0.7806154	-0.007873776	0.00225837	-0.6249581
5	100	1555432131	3.965	-35.197	1006.5	-2.926829	1.585366	0.2439024	-157	29	-228	0.780615	-0.007934812	0.002166814	-0.624958
5	100	1555432131	5.917	-29.524	1011.624	-2.682927	1.707317	0.3658537	-155	29	-226	0.7806168	-0.007751701	0.002197333	-0.624958
5	100	1555432131	6.588	-33.184	1013.82	-2.682927	1.585366	0.3658537	-155	29	-228	0.7806174	-0.00778222	0.001861629	-0.624958
5	100	1555432131	7.564	-32.208	1013.271	-2.804878	1.463415	0.3658537	-154	30	-227	0.7806171	-0.007904294	0.001403851	-0.624958
5	100	1555432131	9.821	-34.465	1039.806	-2.804878	1.341463	0.3658537	-157	29	-228	0.7806397	-0.008117924	0.001159703	-0.6249275
5	100	1555432131	11.163	-40.138	1013.271	-2.804878	1.707317	0.3658537	-155	28	-228	0.7806354	-0.008514664	0.001251259	-0.6249275
5	100	1555432131	-1.464	-34.526	1033.34	-2.926829	1.463415	0.4878049	-156	29	-228	0.7806349	-0.008484146	0.001678518	-0.6249275
5	100	1555432131	14.091	-36.295	994.788	-2.682927	1.585366	0.2439024	-155	29	-227	0.7806293	-0.00900296	0.001586962	-0.6249275
5	100	1555432131	5.673	-32.33	1000.644	-3.170732	1.707317	0	-154	28	-228	0.7806317	-0.008819849	0.001403851	-0.6249275
5	100	1555432131	16.104	-30.317	1038.708	-2.682927	1.341463	0.2439024	-155	29	-227	0.7806059	-0.008972442	0.001159703	-0.624958
5	100	1555432131	5.917	-37.393	1016.504	-2.804878	1.463415	0.1219512	-155	29	-227	0.7806067	-0.008819849	0.001678518	-0.624958
5	100	1555432131	6.893	-33.672	1020.347	-2.926829	1.95122	0.3658537	-156	31	-227	0.780609	-0.00860622	0.001709037	-0.624958
5	100	1555432131	7.686	-39.162	1014.613	-2.804878	1.829268	0.6097561	-155	28	-227	0.7806339	-0.008575701	0.001678518	-0.6249275
5	100	1555432131	0.305	-35.38	1015.162	-2.804878	1.463415	0.3658537	-156	29	-228	0.78061	-0.00839259	0.00225837	-0.624958
5	100	1555432131	1.159	-33.306	1016.443	-2.560976	1.341463	0	-155	30	-227	0.7806131	-0.008087405	0.002288888	-0.624958
5	100	1555432131	4.392	-32.574	1003.877	-2.682927	1.463415	0.2439024	-157	28	-228	0.7806131	-0.008026368	0.002502518	-0.624958
5	100	1555432131	9.394	-33.062	1005.219	-2.682927	1.341463	0.1219512	-156	29	-227	0.7806132	-0.008087405	0.00225837	-0.624958
5	100	1555432131	16.531	-36.905	1004.487	-2.682927	1.707317	0.3658537	-155	31	-227	0.7806147	-0.008056887	0.001800592	-0.6249581
5	100	1555432131	2.989	-33.489	1023.458	-2.560976	1.341463	0.3658537	-155	30	-228	0.7806164	-0.007904294	0.001739555	-0.624958
5	100	1555432131	10.858	-37.637	1020.225	-2.682927	1.829268	0.2439024	-154	31	-228	0.7806169	-0.007904295	0.001525926	-0.6249581
5	100	1555432131	0.61	-35.99	1010.526	-2.926829	1.341463	0.1219512	-155	29	-227	0.7806151	-0.008026369	0.001770074	-0.6249581
5	100	1555432131	4.819	-35.99	1014.918	-2.804878	1.341463	0.4878049	-155	31	-227	0.7806364	-0.008362072	0.001556444	-0.6249275
5	100	1555432132	10.248	-38.613	996.069	-2.682927	1.463415	0.2439024	-155	32	-228	0.7806351	-0.008514665	0.001403852	-0.6249276
5	100	1555432132	6.527	-33.428	1000.217	-2.926829	1.829268	0.4878049	-154	30	-226	0.7806329	-0.008667257	0.001648	-0.6249275
5	100	1555432132	20.435	-33.062	1028.155	-2.804878	1.707317	0.2439024	-155	31	-228	0.7806334	-0.008636738	0.001556444	-0.6249275
5	100	1555432132	18.849	-37.088	1014.43	-2.804878	1.463415	0.2439024	-155	31	-228	0.7806323	-0.008728294	0.001617481	-0.6249275
5	100	1555432132	5.246	-35.075	1016.26	-2.804878	1.341463	0.3658537	-155	29	-228	0.7806337	-0.00860622	0.001586962	-0.6249275
5	100	1555432132	9.333	-37.698	1014.064	-2.682927	1.585366	0.4878049	-156	30	-228	0.7806342	-0.00860622	0.001312296	-0.6249275
5	100	1555432132	7.747	-32.452	1018.273	-2.682927	1.707317	0.4878049	-157	29	-227	0.7806333	-0.008636738	0.001617481	-0.6249275
5	100	1555432132	6.954	-31.354	1013.088	-2.926829	1.341463	0.2439024	-156	30	-227	0.7806361	-0.008331553	0.001861629	-0.6249275
5	100	1555432132	3.66	-33.855	1009.489	-2.804878	1.585366	0.4878049	-156	31	-228	0.780637	-0.008148442	0.00225837	-0.6249275
5	100	1555432132	14.579	-32.94	1019.066	-2.682927	1.341463	0.3658537	-154	32	-228	0.7806386	-0.008026368	0.002136296	-0.6249275
5	100	1555432132	5.856	-34.404	1012.539	-2.804878	1.463415	0.2439024	-155	28	-228	0.7806406	-0.007812738	0.002197333	-0.6249275
5	100	1555432132	2.684	-32.818	1018.334	-2.682927	1.707317	0.1219512	-156	30	-228	0.7806411	-0.007751702	0.002227851	-0.6249276
5	100	1555432132	7.808	-31.903	1021.994	-2.804878	1.707317	0.2439024	-154	30	-228	0.7806417	-0.007812738	0.001770074	-0.6249275
5	100	1555432132	5.246	-39.04	1017.968	-2.682927	1.341463	0.1219512	-155	30	-228	0.7806404	-0.007965331	0.001648	-0.6249275
5	100	1555432132	0.305	-37.21	1017.114	-2.560976	1.95122	0.3658537	-155	28	-228	0.7806414	-0.007812738	0.001892148	-0.6249275
5	100	1555432132	3.233	-31.293	1001.62	-2.560976	1.463415	0.2439024	-155	31	-228	0.7806413	-0.007812738	0.001953185	-0.6249275
5	100	1555432132	15.433	-31.476	1025.044	-2.804878	1.707317	0	-155	30	-228	0.7806415	-0.00778222	0.001983703	-0.6249275
5	100	1555432132	8.662	-34.526	1015.223	-2.804878	1.341463	0.2439024	-155	28	-226	0.7806383	-0.008056886	0.002136296	-0.6249275
5	100	1555432132	-0.183	-35.502	1029.802	-2.682927	1.585366	0.2439024	-155	30	-230	0.7806375	-0.008026368	0.002502518	-0.6249275
5	100	1555432132	4.697	-37.942	1015.528	-2.560976	1.463415	0.3658537	-156	29	-228	0.7806354	-0.008239998	0.002471999	-0.6249275
5	100	1555432132	3.172	-38.979	1016.382	-2.804878	1.829268	0.3658537	-154	30	-227	0.780634	-0.008239998	0.00286874	-0.6249275
5	100	1555432132	6.893	-33.855	1002.474	-2.804878	1.463415	0.4878049	-156	30	-227	0.7806368	-0.007995849	0.002807703	-0.6249275
5	100	1555432132	5.124	-33.794	999.119	-2.804878	1.463415	0.4878049	-156	29	-228	0.7806347	-0.008239998	0.002685629	-0.6249275
5	100	1555432132	8.723001	-34.709	1019.493	-2.560976	1.097561	0.2439024	-155	29	-226	0.7806353	-0.008239998	0.002502518	-0.6249275
5	100	1555432132	6.832	-31.11	1018.639	-3.04878	1.463415	0.1219512	-156	31	-229	0.7806396	-0.00778222	0.002624592	-0.6249275
5	100	1555432132	5.185	-33.428	1038.342	-2.560976	1.829268	0.2439024	-156	31	-228	0.7806399	-0.00778222	0.002533036	-0.6249275
5	100	1555432132	9.394	-37.576	1033.95	-2.804878	1.707317	0.2439024	-156	30	-228	0.7806385	-0.007904294	0.002594073	-0.6249275
5	100	1555432132	-2.135	-36.295	1002.657	-2.804878	1.463415	0.3658537	-155	30	-228	0.7806402	-0.007812738	0.002319407	-0.6249275
5	100	1555432132	7.991	-32.696	1018.7	-2.682927	1.585366	0.2439024	-155	30	-229	0.78064	-0.007873775	0.002197333	-0.6249275
5	100	1555432132	4.697	-34.404	1009.611	-2.926829	1.463415	0.3658537	-156	31	-226	0.7806373	-0.008178961	0.00204474	-0.6249275
5	100	1555432132	2.867	-30.927	1006.378	-2.926829	1.707317	0.3658537	-155	30	-227	0.7806365	-0.008209479	0.002197333	-0.6249275
5	100	1555432132	8.784	-35.929	999.302	-2.560976	1.585366	0.2439024	-157	30	-227	0.7806371	-0.008117924	0.002319407	-0.6249275
5	100	1555432132	1.22	-30.378	1028.704	-2.926829	1.707317	0.2439024	-157	29	-228	0.78064	-0.007904294	0.002075259	-0.6249275
5	100	1555432132	6.893	-38.064	1022.726	-2.804878	1.341463	0.2439024	-155	28	-227	0.7806396	-0.007843257	0.002410962	-0.6249275
5	100	1555432132	-2.318	-38.186	995.825	-2.560976	1.341463	0.1219512	-156	30	-228	0.7806405	-0.007660146	0.002716147	-0.6249275
5	100	1555432132	5.856	-35.502	1014.064	-2.682927	1.341463	0.2439024	-155	30	-228	0.7806427	-0.007507553	0.002502518	-0.6249275
5	100	1555432132	2.928	-32.452	999.729	-2.560976	1.707317	0.3658537	-156	30	-228	0.780641	-0.007690664	0.002471999	-0.6249275
5	100	1555432132	10.126	-33.184	1015.528	-2.682927	1.341463	0.1219512	-156	29	-228	0.780641	-0.007751701	0.002288888	-0.6249275
5	100	1555432132	8.54	-36.539	1012.966	-2.682927	1.829268	0.4878049	-155	29	-228	0.7806402	-0.00778222	0.002441481	-0.6249275
5	100	1555432132	3.111	-34.16	1018.029	-2.682927	1.829268	0.1219512	-155	31	-227	0.7806395	-0.007873775	0.002380444	-0.6249275
5	100	1555432132	4.087	-37.82	1024.251	-2.926829	1.585366	0.4878049	-155	29	-229	0.7806383	-0.008026368	0.002227851	-0.6249275
5	100	1555432132	8.174	-33.123	1021.75	-2.804878	1.829268	0.4878049	-155	30	-228	0.7806381	-0.008026368	0.002319407	-0.6249275
5	100	1555432132	9.394	-32.147	1008.33	-2.804878	1.585366	0.3658537	-155	30	-227	0.7806597	-0.008301036	0.002319407	-0.6248971
5	100	1555432132	-0.854	-36.478	1011.502	-2.682927	1.829268	0.4878049	-155	31	-228	0.7806591	-0.008301035	0.002502518	-0.624897
5	100	1555432132	16.775	-30.378	1018.456	-2.804878	1.829268	0.3658537	-155	30	-228	0.7806603	-0.008301035	0.002075259	-0.624897
5	100	1555432132	5.795	-37.332	1016.077	-2.682927	1.707317	0.3658537	-156	31	-228	0.7806604	-0.008239997	0.002258369	-0.6248969
5	100	1555432132	-0.793	-34.953	1023.031	-2.804878	1.585366	0.2439024	-154	28	-228	0.78066	-0.008209479	0.002502518	-0.624897
5	100	1555432132	5.978	-34.465	1016.992	-2.804878	1.341463	0.2439024	-156	30	-229	0.7806613	-0.008148442	0.002288888	-0.624897
5	100	1555432132	1.769	-35.746	1018.761	-2.682927	1.463415	0.2439024	-156	29	-228	0.7806634	-0.007934812	0.002349925	-0.624897
5	100	1555432132	4.148	-35.136	1016.321	-2.926829	1.585366	0.2439024	-156	29	-227	0.7806639	-0.007843257	0.002471999	-0.624897
5	100	1555432132	4.575	-39.284	1004.487	-2.926829	1.585366	0.3658537	-155	30	-229	0.7806608	-0.008117924	0.002563555	-0.624897
5	100	1555432132	9.333	-35.502	1017.724	-2.682927	1.585366	0.3658537	-155	30	-228	0.7806622	-0.007995849	0.002533036	-0.624897
5	100	1555432132	10.675	-35.014	1010.709	-2.682927	1.341463	0.1219512	-156	29	-228	0.780662	-0.008056886	0.002380444	-0.624897
5	100	1555432132	2.44	-37.637	1020.957	-2.682927	1.463415	0.4878049	-156	29	-228	0.7806614	-0.008087405	0.002471999	-0.624897
5	100	1555432132	10.614	-33.367	1011.868	-2.926829	1.219512	0.3658537	-156	30	-229	0.7806619	-0.008148442	0.002105777	-0.624897
5	100	1555432132	4.453	-42.944	1013.454	-2.926829	1.585366	0.3658537	-155	29	-226	0.7806591	-0.00839259	0.002166814	-0.624897
5	100	1555432132	8.723001	-32.086	1013.82	-2.926829	1.707317	0.2439024	-154	30	-228	0.7806584	-0.008575701	0.001648	-0.624897
5	100	1555432132	9.821	-34.404	1016.016	-2.926829	1.707317	0.2439024	-156	29	-228	0.7806582	-0.008636738	0.001403851	-0.624897
5	100	1555432132	10.553	-28.731	1011.929	-2.317073	1.341463	0.3658537	-155	30	-228	0.7806613	-0.008331552	0.00143437	-0.6248969
5	100	1555432132	7.869	-33.55	1008.025	-2.560976	1.707317	0.3658537	-155	29	-227	0.7806872	-0.008239998	0.001251259	-0.6248665
5	100	1555432132	7.869	-36.6	1034.316	-2.804878	1.585366	0.2439024	-155	30	-230	0.7806635	-0.008148442	0.001373333	-0.624897
5	100	1555432132	9.821	-33.184	1036.695	-2.682927	1.585366	0.3658537	-155	29	-228	0.780665	-0.007965331	0.001556444	-0.624897
5	100	1555432132	9.089	-35.258	1019.798	-2.560976	1.341463	0.2439024	-155	29	-228	0.7806612	-0.008331554	0.001586963	-0.6248971
5	100	1555432132	3.782	-32.574	1019.676	-2.926829	1.219512	0.1219512	-157	28	-227	0.7806607	-0.00839259	0.001495407	-0.624897
5	100	1555432132	7.259	-39.223	998.082	-2.804878	1.707317	0.4878049	-154	31	-228	0.7806815	-0.008697775	0.001617481	-0.6248665
5	100	1555432132	12.322	-32.94	1008.574	-2.682927	1.585366	0.4878049	-155	28	-229	0.7806783	-0.00900296	0.001495407	-0.6248665
5	100	1555432132	8.784	-29.158	1039.196	-2.804878	1.219512	0.2439024	-155	31	-229	0.7806793	-0.008819849	0.001953185	-0.6248665
5	100	1555432132	9.455	-38.308	1021.201	-2.682927	1.829268	0.2439024	-156	29	-227	0.7806783	-0.008911405	0.001953185	-0.6248665
5	100	1555432132	10.675	-41.602	1028.948	-2.804878	1.829268	0.1219512	-154	30	-225	0.780678	-0.008941923	0.001922666	-0.6248665
5	100	1555432132	6.222	-35.38	1016.382	-2.682927	1.463415	0.4878049	-156	28	-227	0.7806783	-0.008941922	0.001770073	-0.6248664
5	100	1555432132	-1.83	-36.112	1036.329	-2.682927	1.463415	0.1219512	-156	30	-227	0.780682	-0.008636738	0.001709037	-0.6248665
5	100	1555432132	8.174	-39.528	998.326	-2.560976	1.341463	0.4878049	-156	28	-228	0.7806786	-0.008972442	0.001495407	-0.6248665
5	100	1555432132	11.407	-32.757	1000.217	-2.926829	1.463415	0	-153	32	-228	0.7806793	-0.008941923	0.001342814	-0.6248665
5	100	1555432132	17.263	-36.6	1032.486	-2.804878	1.707317	0.4878049	-157	30	-226	0.7806762	-0.00918607	0.00143437	-0.6248664
5	100	1555432132	6.893	-35.807	1028.948	-2.804878	1.707317	0.2439024	-154	29	-227	0.780675	-0.009277627	0.001525925	-0.6248665
5	100	1555432132	14.335	-34.038	1036.817	-2.804878	1.707317	0.4878049	-156	29	-228	0.7806762	-0.009186071	0.001464888	-0.6248665
5	100	1555432132	0	-38.003	1005.524	-2.439024	1.585366	0.2439024	-155	30	-228	0.7806779	-0.009033479	0.001495407	-0.6248665
5	100	1555432132	0.671	-31.476	1019.005	-2.682927	1.707317	0.3658537	-155	29	-226	0.7806818	-0.008697775	0.001464888	-0.6248665
5	100	1555432132	5.978	-27.633	1017.846	-2.926829	1.463415	0.6097561	-155	29	-228	0.7806862	-0.008270516	0.001586962	-0.6248665
5	100	1555432132	7.564	-33.855	1012.234	-2.682927	1.341463	0.2439024	-156	29	-226	0.7806863	-0.008239998	0.001678518	-0.6248665
5	100	1555432132	7.015	-34.221	1006.744	-2.560976	1.829268	0.3658537	-154	31	-227	0.7806877	-0.008087405	0.001800592	-0.6248665
5	100	1555432132	2.623	-31.842	1035.17	-2.804878	1.341463	0.4878049	-155	29	-228	0.7806878	-0.008087405	0.001739555	-0.6248665
5	100	1555432132	10.309	-34.953	1026.081	-2.804878	1.463415	0.2439024	-155	30	-227	0.7806897	-0.007873775	0.001861629	-0.6248665
5	100	1555432132	-8.052	-40.016	1010.343	-2.804878	1.463415	0.3658537	-155	29	-227	0.7806895	-0.007751701	0.002380444	-0.6248665
5	100	1555432132	3.233	-35.014	1020.469	-2.682927	1.585366	0.3658537	-154	31	-229	0.7806908	-0.007568589	0.002502518	-0.6248664
5	100	1555432132	-2.379	-33.611	1011.746	-2.804878	1.585366	0.3658537	-156	30	-228	0.7806908	-0.007538072	0.002624592	-0.6248665
5	100	1555432132	10.126	-33.428	1024.373	-2.926829	1.585366	0.2439024	-155	31	-228	0.7806911	-0.007599109	0.002349925	-0.6248665
5	100	1555432132	8.601	-37.454	1021.689	-2.926829	1.829268	0.3658537	-155	31	-229	0.7806889	-0.007721182	0.002624592	-0.6248664
5	100	1555432132	-2.44	-36.722	1028.277	-2.682927	1.585366	0.4878049	-155	30	-228	0.7806888	-0.007629627	0.002929777	-0.6248665
5	100	1555432132	6.161	-35.38	1024.373	-2.682927	1.463415	0.3658537	-157	31	-227	0.7806876	-0.007904294	0.002502518	-0.6248665
5	100	1555432132	0.061	-35.99	1025.654	-2.926829	1.707317	0.2439024	-154	30	-228	0.7806872	-0.007904294	0.002624592	-0.6248665
5	100	1555432132	12.139	-34.953	1015.406	-2.682927	1.463415	0.4878049	-155	29	-228	0.7806861	-0.008087406	0.002410962	-0.6248665
5	100	1555432132	0.671	-33.428	1014.064	-2.682927	1.585366	0.3658537	-154	30	-228	0.7807107	-0.008148442	0.002105777	-0.624836
5	100	1555432132	8.479	-32.086	1019.615	-2.682927	1.829268	0.3658537	-156	30	-226	0.7807142	-0.007812737	0.00204474	-0.6248359
5	100	1555432132	7.015	-31.232	1021.079	-2.926829	1.463415	0.2439024	-155	30	-228	0.7807131	-0.007873775	0.00225837	-0.624836
5	100	1555432132	5.429	-36.112	1023.885	-2.682927	1.341463	0.2439024	-155	29	-228	0.7807125	-0.007934812	0.002227851	-0.624836
5	100	1555432132	3.965	-36.966	1018.761	-2.682927	1.707317	0.3658537	-155	30	-227	0.7807103	-0.008209478	0.001983703	-0.6248359
5	100	1555432132	2.867	-32.574	1020.652	-2.804878	1.829268	0.2439024	-157	29	-228	0.7807092	-0.008331553	0.001922666	-0.624836
5	100	1555432132	11.529	-39.345	998.326	-3.04878	1.219512	0.3658537	-154	31	-228	0.7807055	-0.008728293	0.001617481	-0.6248359
5	100	1555432132	9.272	-32.208	1007.171	-2.804878	1.585366	0.3658537	-155	29	-226	0.7807059	-0.008697775	0.001617481	-0.624836
5	100	1555432132	13.115	-34.953	1018.7	-2.804878	1.585366	0.3658537	-155	31	-228	0.7807025	-0.008972441	0.001709036	-0.6248359
5	100	1555432132	7.076	-38.491	1014.064	-2.804878	1.707317	0.1219512	-156	29	-228	0.7807011	-0.009125034	0.001586962	-0.624836
5	100	1555432132	8.601	-33.672	1026.264	-2.682927	1.463415	0.3658537	-154	30	-226	0.7807006	-0.009125033	0.001770073	-0.6248359
5	100	1555432132	6.649	-38.064	1022.787	-2.804878	1.219512	0.3658537	-155	30	-227	0.7806998	-0.009247107	0.001495407	-0.6248359
5	100	1555432132	2.257	-35.563	1028.582	-2.439024	1.707317	0.3658537	-154	31	-228	0.7807033	-0.008941923	0.001556444	-0.624836
5	100	1555432132	2.074	-38.43	1008.818	-2.804878	1.707317	0.2439024	-155	30	-228	0.7807034	-0.008850368	0.001983703	-0.624836
5	100	1555432132	4.575	-30.927	1003.267	-2.560976	1.097561	0.1219512	-155	30	-227	0.7807043	-0.008850368	0.001586962	-0.624836
5	100	1555432132	6.527	-28.975	1024.678	-3.04878	1.707317	0.2439024	-157	28	-228	0.7807086	-0.008453627	0.001648	-0.624836
5	100	1555432132	6.527	-38.247	1021.506	-2.439024	1.585366	0.2439024	-154	29	-228	0.7807076	-0.008453627	0.00204474	-0.624836
5	100	1555432132	2.135	-38.369	1040.05	-2.804878	1.585366	0.3658537	-155	30	-227	0.7807083	-0.008331552	0.002258369	-0.6248359
5	100	1555432132	4.636	-39.711	1022.665	-2.804878	1.219512	0.6097561	-154	31	-228	0.7807074	-0.008423109	0.00225837	-0.624836
5	100	1555432132	3.965	-37.515	1023.153	-2.682927	1.463415	0.3658537	-156	30	-228	0.7807082	-0.008301035	0.002410962	-0.624836
5	100	1555432133	6.039	-28.243	1023.824	-2.560976	1.829268	0.1219512	-155	30	-227	0.7806875	-0.008026368	0.002105777	-0.6248665
5	100	1555432133	4.819	-32.086	1014.003	-2.560976	1.341463	0.1219512	-156	28	-228	0.7806891	-0.007965331	0.001739555	-0.6248665
5	100	1555432133	9.333	-31.049	1005.463	-2.682927	1.463415	0.4878049	-155	29	-227	0.7806872	-0.008178961	0.001586962	-0.6248665
5	100	1555432133	14.457	-34.648	999.485	-2.804878	1.585366	0.4878049	-157	30	-228	0.7806843	-0.008514664	0.001190222	-0.6248665
5	100	1555432133	3.111	-32.452	1042.551	-2.926829	1.585366	0.3658537	-154	29	-228	0.7806878	-0.008117924	0.001586962	-0.6248665
5	100	1555432133	5.185	-39.284	1033.34	-2.682927	1.829268	0.2439024	-158	29	-228	0.780688	-0.008056887	0.001831111	-0.6248665
5	100	1555432133	-5.063	-36.295	1000.888	-3.04878	1.585366	0.1219512	-154	29	-228	0.7806916	-0.007660146	0.001953185	-0.6248665
5	100	1555432133	4.758	-32.635	1020.225	-2.682927	1.463415	0.2439024	-156	28	-229	0.7806671	-0.007690664	0.001892148	-0.624897
5	100	1555432133	5.063	-36.417	1013.027	-2.682927	1.463415	0.2439024	-155	29	-228	0.7806884	-0.007965332	0.00204474	-0.6248665
5	100	1555432133	2.562	-30.134	1012.539	-2.682927	1.585366	0.2439024	-155	31	-226	0.7806891	-0.007843257	0.002227851	-0.6248665
5	100	1555432133	10.553	-37.942	1008.33	-2.926829	1.585366	0.1219512	-155	29	-230	0.7806876	-0.008056886	0.001953185	-0.6248665
5	100	1555432133	3.538	-34.221	1030.29	-2.682927	1.585366	0	-156	28	-229	0.7806887	-0.007965331	0.001892148	-0.6248665
5	100	1555432133	14.762	-33.184	1028.033	-2.560976	1.341463	0.2439024	-155	31	-228	0.780664	-0.008026369	0.001739555	-0.6248971
5	100	1555432133	2.013	-37.576	1001.559	-2.804878	1.707317	0.4878049	-158	29	-228	0.7806882	-0.007995849	0.001983703	-0.6248665
5	100	1555432133	-0.305	-30.866	1015.65	-2.804878	1.585366	0.2439024	-155	29	-228	0.7806898	-0.007873775	0.001831111	-0.6248665
5	100	1555432133	21.289	-35.746	1013.393	-2.560976	1.341463	0.2439024	-155	30	-227	0.7806865	-0.008239997	0.001556444	-0.6248664
5	100	1555432133	10.309	-30.561	1014.979	-2.926829	1.585366	0.2439024	-156	30	-228	0.7806879	-0.008087405	0.001678518	-0.6248665
5	100	1555432133	13.603	-36.112	1009.428	-2.804878	1.341463	0.3658537	-157	30	-228	0.7806891	-0.007995849	0.001556444	-0.6248665
5	100	1555432133	-2.44	-37.698	1031.266	-2.926829	1.463415	0.4878049	-154	31	-228	0.780687	-0.008056886	0.002136295	-0.6248664
5	100	1555432133	2.623	-40.016	1021.384	-2.804878	1.585366	0.2439024	-155	28	-229	0.7806832	-0.008423109	0.002166814	-0.6248665
5	100	1555432133	5.307	-31.842	1018.639	-2.682927	1.829268	0.3658537	-153	30	-228	0.7806835	-0.008331553	0.002380444	-0.6248665
5	100	1555432133	4.087	-36.478	1014.247	-2.804878	1.585366	0.3658537	-155	27	-228	0.7806815	-0.008484146	0.002502518	-0.6248665
5	100	1555432133	-1.952	-38.064	1013.393	-2.560976	1.463415	0.3658537	-155	28	-226	0.7806793	-0.008636738	0.00265511	-0.6248665
5	100	1555432133	15.128	-33.367	1024.556	-2.682927	1.707317	0.4878049	-156	29	-226	0.7806785	-0.008819849	0.00225837	-0.6248665
5	100	1555432133	9.516	-35.685	1018.334	-2.682927	1.463415	0.3658537	-155	30	-228	0.7806767	-0.008972442	0.002288888	-0.6248665
5	100	1555432133	14.579	-33.489	1022.726	-2.926829	1.341463	0.2439024	-156	29	-229	0.7806746	-0.00921659	0.002014222	-0.6248665
5	100	1555432133	0.671	-38.064	1014.552	-2.682927	1.463415	0	-156	31	-227	0.7806751	-0.009186071	0.001983703	-0.6248665
5	100	1555432133	5.612	-30.805	1010.77	-2.560976	1.341463	0.6097561	-155	29	-228	0.7807041	-0.008819849	0.001831111	-0.624836
5	100	1555432133	5.856	-34.038	1005.036	-2.682927	1.707317	0.3658537	-155	29	-229	0.7806816	-0.008575701	0.002136296	-0.6248665
5	100	1555432133	5.734	-32.635	1011.441	-2.804878	1.707317	0.3658537	-155	29	-228	0.7806861	-0.008148441	0.002136295	-0.6248664
5	100	1555432133	7.503	-34.099	1012.417	-2.804878	1.829268	0.2439024	-156	30	-229	0.7806863	-0.008148442	0.002105777	-0.6248665
5	100	1555432133	2.745	-32.818	1033.584	-2.804878	1.585366	0.2439024	-156	29	-228	0.7806858	-0.008148442	0.00225837	-0.6248665
5	100	1555432133	9.76	-42.944	1016.809	-2.804878	1.707317	0.4878049	-155	30	-228	0.7806815	-0.008575701	0.002166814	-0.6248665
5	100	1555432133	5.856	-32.879	1011.502	-2.682927	1.585366	0.1219512	-155	30	-228	0.7806835	-0.00842311	0.002075259	-0.6248665
5	100	1555432133	10.37	-33.306	997.96	-2.560976	1.341463	0.2439024	-154	31	-228	0.7806821	-0.008545183	0.002075259	-0.6248665
5	100	1555432133	5.429	-31.476	1006.744	-2.926829	1.707317	0.3658537	-157	27	-228	0.7806841	-0.008423109	0.001831111	-0.6248665
5	100	1555432133	7.503	-32.94	1033.462	-2.682927	1.707317	0.3658537	-154	30	-226	0.7806835	-0.008484146	0.001800592	-0.6248665
5	100	1555432133	4.27	-39.284	1007.72	-2.682927	1.707317	0.3658537	-154	29	-228	0.7806839	-0.008453627	0.001739555	-0.6248665
5	100	1555432133	5.673	-36.051	1020.286	-2.804878	1.585366	0.1219512	-156	29	-228	0.7806829	-0.008514664	0.001892148	-0.6248665
5	100	1555432133	4.636	-32.757	1011.868	-2.926829	1.341463	0.4878049	-153	29	-226	0.7806816	-0.00860622	0.002014222	-0.6248665
5	100	1555432133	3.843	-35.014	1010.709	-3.04878	1.585366	0.3658537	-157	30	-228	0.7806792	-0.008850368	0.001892148	-0.6248665
5	100	1555432133	13.847	-36.783	984.235	-2.926829	1.585366	0.3658537	-156	32	-226	0.7806774	-0.009063997	0.001556444	-0.6248665
5	100	1555432133	11.346	-24.583	1006.561	-2.560976	1.463415	0.1219512	-156	29	-228	0.7806794	-0.008941923	0.001251259	-0.6248665
5	100	1555432133	14.701	-32.757	1014.979	-2.560976	1.585366	0.6097561	-154	32	-229	0.780681	-0.008850368	0.0008850368	-0.6248665
5	100	1555432133	7.503	-34.648	1008.391	-2.804878	1.585366	0	-158	30	-229	0.7806811	-0.008850369	0.0008545184	-0.6248665
5	100	1555432133	10.675	-33.367	1030.839	-2.804878	1.219512	0.2439024	-155	29	-228	0.7806832	-0.008606219	0.001159703	-0.6248664
5	100	1555432133	-0.915	-32.818	1012.539	-3.04878	1.829268	0.3658537	-156	30	-227	0.7806853	-0.008423109	0.001159703	-0.6248665
5	100	1555432133	6.1	-32.025	1009.916	-2.682927	1.463415	0.1219512	-154	30	-228	0.7806835	-0.00860622	0.001007111	-0.6248665
5	100	1555432133	16.165	-33.123	995.337	-2.804878	1.463415	0.3658537	-157	30	-228	0.7806808	-0.008850368	0.001037629	-0.6248665
5	100	1555432133	9.699	-31.903	1006.195	-2.682927	1.707317	0.3658537	-154	31	-228	0.7806813	-0.008789331	0.001129185	-0.6248665
5	100	1555432133	12.383	-36.417	999.851	-2.804878	1.463415	0.2439024	-156	30	-229	0.7806787	-0.009063998	0.0007324443	-0.6248665
5	100	1555432133	4.331	-34.526	1024.434	-2.804878	1.463415	0.2439024	-155	29	-226	0.780681	-0.008850368	0.0009155553	-0.6248665
5	100	1555432133	10.248	-33.123	1017.541	-2.804878	1.829268	0.3658537	-156	31	-228	0.7806606	-0.008453627	0.001190222	-0.624897
5	100	1555432133	-7.686	-34.404	999.18	-2.804878	1.829268	0.2439024	-154	30	-228	0.7806622	-0.008239998	0.001525925	-0.624897
5	100	1555432133	8.723001	-34.404	1009.611	-2.682927	1.341463	0.2439024	-157	29	-226	0.7806619	-0.008239998	0.001678518	-0.624897
5	100	1555432133	3.477	-30.988	1008.452	-2.926829	1.585366	0.1219512	-156	29	-227	0.780663	-0.008026368	0.002136296	-0.624897
5	100	1555432133	6.222	-32.696	1008.818	-2.560976	1.585366	0.3658537	-157	30	-228	0.7806641	-0.007965331	0.001983703	-0.624897
5	100	1555432133	5.002	-34.465	1004.731	-2.439024	1.707317	0.1219512	-156	29	-226	0.7806658	-0.00778222	0.002014222	-0.624897
5	100	1555432133	3.111	-35.502	1021.323	-2.682927	1.585366	0.7317073	-157	29	-228	0.7806654	-0.00778222	0.002166814	-0.624897
5	100	1555432133	11.712	-34.648	1013.332	-2.560976	1.95122	0.1219512	-155	31	-228	0.7806657	-0.00778222	0.002075259	-0.624897
5	100	1555432133	3.294	-32.513	1009.367	-2.682927	1.585366	0.2439024	-156	30	-229	0.7806409	-0.00778222	0.002197333	-0.6249275
5	100	1555432133	3.599	-33.916	1013.393	-2.682927	1.463415	0.3658537	-155	29	-229	0.7806619	-0.008148442	0.002075259	-0.624897
5	100	1555432133	15.921	-36.417	1000.827	-2.926829	1.707317	0.2439024	-156	30	-229	0.7806598	-0.008453628	0.001617481	-0.6248971
5	100	1555432133	9.211	-35.38	1012.051	-2.560976	1.585366	0.2439024	-154	28	-227	0.7806607	-0.008362072	0.001648	-0.624897
5	100	1555432133	14.823	-33.672	1012.417	-2.804878	1.707317	0.2439024	-157	30	-228	0.7806579	-0.008667258	0.001403852	-0.6248971
5	100	1555432133	5.429	-32.391	1011.258	-2.439024	1.707317	0.6097561	-156	32	-229	0.7806551	-0.008941923	0.001190222	-0.624897
5	100	1555432133	15.433	-33.794	1017.236	-2.804878	1.585366	0.3658537	-155	29	-228	0.780654	-0.009063997	0.0009460738	-0.624897
5	100	1555432133	7.381	-33.428	1004.548	-2.682927	1.707317	0.3658537	-155	30	-230	0.7806544	-0.009033479	0.0009155553	-0.624897
5	100	1555432133	11.468	-29.951	1011.807	-2.804878	1.829268	0.6097561	-154	28	-228	0.7806556	-0.008941923	0.0007629627	-0.624897
5	100	1555432133	13.359	-36.905	986.858	-2.926829	1.585366	0.4878049	-156	31	-226	0.7806559	-0.008941924	0.0004882962	-0.6248971
5	100	1555432133	9.943	-29.158	1006.988	-2.926829	1.219512	0.2439024	-155	31	-228	0.7806574	-0.008789331	0.0007324442	-0.624897
5	100	1555432133	9.150001	-33.55	1011.868	-2.560976	1.829268	0.3658537	-154	29	-226	0.7806594	-0.00860622	0.0007019257	-0.624897
5	100	1555432133	6.283	-41.785	1014.552	-2.560976	1.463415	0.3658537	-157	28	-228	0.7806562	-0.008850368	0.001159703	-0.624897
5	100	1555432133	6.71	-35.868	1024.007	-2.560976	1.463415	0.3658537	-154	30	-229	0.7806559	-0.008850368	0.001342814	-0.624897
5	100	1555432133	8.235	-37.088	1014.186	-2.682927	1.707317	0.6097561	-156	29	-228	0.7806544	-0.00900296	0.001159703	-0.624897
5	100	1555432133	6.039	-37.332	1021.567	-3.04878	1.707317	0.4878049	-155	30	-228	0.7806529	-0.009125034	0.001251259	-0.624897
5	100	1555432133	9.394	-40.382	992.287	-2.682927	1.463415	0.2439024	-155	29	-228	0.7806512	-0.009277627	0.00122074	-0.624897
5	100	1555432133	7.625	-35.319	993.507	-2.804878	1.585366	0.4878049	-155	29	-227	0.7806743	-0.009369182	0.001281777	-0.6248665
5	100	1555432133	7.015	-33.184	1027.667	-2.560976	1.463415	0.1219512	-157	30	-228	0.7806512	-0.009247108	0.001403851	-0.624897
5	100	1555432133	4.941	-37.271	1011.319	-2.682927	1.829268	0.2439024	-154	30	-227	0.7806505	-0.009277627	0.001586962	-0.624897
5	100	1555432133	7.625	-35.563	1014.186	-2.804878	1.585366	0.2439024	-157	29	-229	0.7806519	-0.009186071	0.00143437	-0.624897
5	100	1555432133	7.625	-37.393	1015.589	-2.804878	1.463415	0.3658537	-155	30	-226	0.7806498	-0.009338665	0.001586963	-0.6248971
5	100	1555432133	0	-33.55	1035.048	-3.04878	1.463415	0.1219512	-157	29	-229	0.7806489	-0.009369183	0.001800592	-0.6248971
5	100	1555432133	5.063	-38.003	995.642	-2.682927	1.585366	0.1219512	-156	29	-226	0.7806499	-0.009308145	0.001678518	-0.624897
5	100	1555432133	1.891	-38.064	1005.158	-2.682927	1.463415	0.1219512	-157	28	-232	0.7806491	-0.009369182	0.001709037	-0.624897
5	100	1555432133	19.703	-31.842	1031.144	-2.804878	1.707317	0.3658537	-155	30	-229	0.7806497	-0.009369182	0.001403851	-0.624897
5	100	1555432133	11.773	-39.467	1014.796	-2.682927	1.707317	0.4878049	-156	30	-228	0.7806495	-0.009369182	0.001495407	-0.624897
5	100	1555432133	11.285	-34.221	1021.079	-2.682927	1.585366	0.2439024	-154	28	-228	0.7806516	-0.00921659	0.001403851	-0.624897
5	100	1555432133	8.906	-44.53	1015.833	-2.682927	1.219512	0.6097561	-155	29	-229	0.7806499	-0.009369183	0.001312296	-0.6248971
5	100	1555432133	1.281	-32.757	1025.776	-2.926829	1.829268	0.4878049	-156	30	-228	0.7806534	-0.009063998	0.001373333	-0.6248971
5	100	1555432133	11.651	-35.014	998.936	-2.804878	1.219512	0.2439024	-156	29	-226	0.7806515	-0.009247109	0.00122074	-0.6248971
5	100	1555432133	6.71	-35.136	995.52	-2.804878	1.341463	0.2439024	-155	29	-228	0.7806522	-0.009186071	0.00122074	-0.624897
5	100	1555432133	16.165	-37.088	1010.953	-2.682927	1.463415	0.6097561	-156	30	-228	0.7806478	-0.009552293	0.00122074	-0.624897
5	100	1555432133	6.527	-36.234	1017.968	-2.926829	1.707317	0.2439024	-155	30	-228	0.7806508	-0.009308145	0.001190222	-0.624897
5	100	1555432133	16.165	-33.672	1024.861	-2.682927	1.585366	0.3658537	-157	28	-227	0.7806542	-0.00903348	0.001098666	-0.6248971
5	100	1555432133	0.976	-34.465	1011.197	-2.560976	1.219512	0.4878049	-155	29	-227	0.780658	-0.008697776	0.001098666	-0.6248971
5	100	1555432133	4.941	-31.598	1014.369	-3.04878	1.219512	0.3658537	-154	30	-228	0.780659	-0.008636738	0.0007934812	-0.624897
5	100	1555432133	12.505	-36.173	1004.609	-2.804878	1.463415	0	-155	28	-227	0.780658	-0.008728295	0.0008239998	-0.6248971
5	100	1555432134	8.174	-32.086	1011.502	-2.682927	1.463415	0.3658537	-155	29	-239	0.7806603	-0.008453627	0.001312296	-0.624897
5	100	1555432134	12.139	-35.502	1001.742	-2.804878	1.585366	0.2439024	-154	30	-228	0.7806576	-0.008728294	0.001098666	-0.624897
5	100	1555432134	2.562	-38.186	1019.432	-2.439024	1.707317	0.1219512	-158	30	-228	0.7806578	-0.008667257	0.00143437	-0.624897
5	100	1555432134	16.287	-34.038	1015.589	-2.682927	1.585366	0.2439024	-155	31	-228	0.780659	-0.008575701	0.001342814	-0.624897
5	100	1555432134	-1.22	-36.844	1009.367	-2.682927	1.463415	0.2439024	-156	31	-228	0.7806584	-0.008636739	0.001281778	-0.6248971
5	100	1555432134	3.233	-32.208	1012.112	-2.804878	1.097561	0.4878049	-156	31	-228	0.780659	-0.008575701	0.001312296	-0.624897
5	100	1555432134	11.163	-32.025	1011.685	-2.804878	1.463415	0.4878049	-155	30	-228	0.7806598	-0.008514664	0.001251259	-0.624897
5	100	1555432134	8.235	-34.892	1013.149	-2.682927	1.585366	0.3658537	-155	30	-228	0.7806615	-0.008270516	0.001739555	-0.624897
5	100	1555432134	12.383	-36.234	1013.393	-2.926829	1.341463	0.2439024	-156	30	-228	0.7806609	-0.008331553	0.001678518	-0.624897
5	100	1555432134	3.477	-32.086	1013.881	-2.682927	1.341463	0.4878049	-154	29	-229	0.7806608	-0.008362072	0.001586962	-0.624897
5	100	1555432134	12.444	-33.794	1014.857	-2.560976	1.463415	0.1219512	-156	28	-230	0.7806601	-0.008423109	0.001617481	-0.624897
5	100	1555432134	4.209	-34.77	1013.027	-2.560976	1.95122	0.4878049	-154	30	-228	0.7806594	-0.008514665	0.001495407	-0.6248971
5	100	1555432134	2.989	-30.378	1015.955	-2.682927	1.585366	0.3658537	-153	30	-229	0.7806625	-0.008270516	0.00122074	-0.624897
5	100	1555432134	8.723001	-35.502	989.603	-2.682927	1.707317	0.3658537	-156	29	-227	0.7806627	-0.008270516	0.001037629	-0.624897
5	100	1555432134	3.538	-33.245	1009.672	-2.804878	1.463415	0.3658537	-155	31	-232	0.7806634	-0.008148442	0.001403851	-0.624897
5	100	1555432134	10.004	-29.951	1019.676	-2.804878	1.341463	0.3658537	-154	30	-228	0.7806635	-0.008178961	0.001190222	-0.624897
5	100	1555432134	5.795	-40.016	1007.476	-2.804878	1.463415	0.1219512	-156	28	-230	0.7806591	-0.008545184	0.00143437	-0.6248971
5	100	1555432134	2.989	-37.088	1023.702	-2.682927	1.707317	0.1219512	-158	29	-227	0.7806583	-0.008606221	0.001525926	-0.6248971
5	100	1555432134	9.943	-39.955	1018.578	-2.926829	1.585366	0.2439024	-155	30	-228	0.780655	-0.008941923	0.001281777	-0.624897
5	100	1555432134	5.368	-30.256	1017.114	-2.804878	1.829268	0.4878049	-155	31	-227	0.7806576	-0.008667257	0.001495407	-0.624897
5	100	1555432134	9.211	-39.101	1003.328	-2.439024	1.95122	0.2439024	-156	29	-227	0.7806566	-0.008758812	0.001525925	-0.624897
5	100	1555432134	-1.281	-34.831	999.607	-2.804878	1.585366	0.6097561	-155	29	-228	0.7806572	-0.008728295	0.001373333	-0.6248971
5	100	1555432134	7.991	-30.378	1022.36	-2.682927	1.707317	0.1219512	-156	29	-229	0.7806593	-0.008514665	0.001525926	-0.6248971
5	100	1555432134	6.893	-40.26	1014.613	-3.04878	1.463415	0.1219512	-157	29	-226	0.7806574	-0.008575701	0.00204474	-0.624897
5	100	1555432134	7.503	-37.027	1033.157	-2.682927	1.829268	0.3658537	-155	31	-228	0.7806593	-0.00839259	0.002105777	-0.624897
5	100	1555432134	9.455	-38.857	1018.883	-2.804878	1.341463	0.2439024	-157	31	-227	0.7806586	-0.008484146	0.001983703	-0.624897
5	100	1555432134	1.708	-36.051	1013.515	-2.682927	1.585366	0.3658537	-156	30	-228	0.7806582	-0.008453627	0.00225837	-0.624897
5	100	1555432134	1.281	-38.369	1005.829	-2.804878	1.707317	0.1219512	-154	31	-225	0.7806579	-0.00839259	0.002533036	-0.624897
5	100	1555432134	-0.366	-36.295	1002.657	-2.926829	1.585366	0.1219512	-155	31	-227	0.7806563	-0.008514664	0.00265511	-0.624897
5	100	1555432134	13.786	-30.317	1021.384	-2.804878	1.463415	0.3658537	-155	30	-228	0.7806578	-0.008453627	0.002380444	-0.624897
5	100	1555432134	11.407	-37.21	1014.43	-2.804878	1.707317	0.3658537	-156	29	-229	0.780656	-0.008545184	0.002655111	-0.6248971
5	100	1555432134	-1.037	-33.55	1043.344	-2.682927	1.707317	0.3658537	-156	29	-227	0.7806596	-0.008209479	0.00265511	-0.624897
5	100	1555432134	2.745	-39.101	1020.774	-2.804878	1.463415	0.2439024	-156	29	-228	0.7806598	-0.008178961	0.002685629	-0.6248971
5	100	1555432134	-6.405	-34.831	1015.345	-2.804878	1.585366	0.4878049	-156	31	-227	0.7806644	-0.00778222	0.002502518	-0.624897
5	100	1555432134	9.699	-31.171	1017.114	-2.926829	1.463415	0.3658537	-156	30	-229	0.7806642	-0.007843257	0.002380444	-0.624897
5	100	1555432134	3.111	-29.768	1008.94	-2.926829	1.707317	0.3658537	-155	31	-227	0.7806663	-0.007629627	0.002380444	-0.624897
5	100	1555432134	10.37	-33.184	1008.208	-2.804878	1.341463	0.2439024	-156	29	-228	0.7806656	-0.00778222	0.002105777	-0.6248971
5	100	1555432134	16.165	-35.441	1000.827	-2.804878	1.585366	0.6097561	-156	29	-228	0.7806627	-0.008148442	0.001770074	-0.624897
5	100	1555432134	2.196	-30.317	1029.314	-2.560976	1.463415	0.3658537	-155	30	-228	0.7806654	-0.007873775	0.001831111	-0.624897
5	100	1555432134	2.501	-36.356	1018.456	-2.682927	1.707317	0.3658537	-156	31	-228	0.7806655	-0.007843257	0.001922666	-0.624897
5	100	1555432134	3.904	-38.857	1013.637	-2.926829	1.707317	0.1219512	-156	31	-229	0.7806415	-0.007721183	0.002197333	-0.6249275
5	100	1555432134	11.102	-34.953	1003.023	-2.804878	1.707317	0.2439024	-157	29	-227	0.7806388	-0.00799585	0.002197333	-0.6249276
5	100	1555432134	7.747	-34.099	1002.901	-2.682927	1.585366	0.4878049	-155	30	-229	0.78066	-0.008331553	0.002075259	-0.624897
5	100	1555432134	12.627	-34.221	1013.271	-3.04878	1.463415	0.2439024	-155	29	-228	0.7806327	-0.008545183	0.002288888	-0.6249275
5	100	1555432134	5.368	-33.306	1015.467	-2.926829	1.95122	0.2439024	-154	29	-229	0.7806302	-0.008850368	0.001922666	-0.6249275
5	100	1555432134	14.701	-34.648	1019.188	-2.926829	1.463415	0.3658537	-157	30	-226	0.7806318	-0.008758812	0.001709037	-0.6249275
5	100	1555432134	4.27	-36.356	1014.979	-2.682927	1.707317	0.2439024	-155	29	-229	0.7806327	-0.008667257	0.001739555	-0.6249275
5	100	1555432134	2.623	-31.72	1014.918	-2.926829	1.585366	0.3658537	-155	32	-227	0.7806332	-0.008667258	0.001525926	-0.6249276
5	100	1555432134	11.529	-34.77	1007.11	-2.804878	1.585366	0.1219512	-156	30	-227	0.7806305	-0.008941924	0.001342815	-0.6249276
5	100	1555432134	11.895	-33.794	1007.537	-2.926829	1.585366	0.1219512	-157	28	-229	0.7806302	-0.008941923	0.00143437	-0.6249275
5	100	1555432134	19.032	-35.258	1019.615	-3.04878	1.463415	0.2439024	-154	29	-227	0.7806284	-0.009063997	0.001648	-0.6249275
5	100	1555432134	6.771	-36.6	1011.929	-2.560976	1.341463	0.3658537	-155	30	-227	0.7806283	-0.009094516	0.001556444	-0.6249275
5	100	1555432134	2.867	-34.221	1013.393	-2.804878	1.585366	0.1219512	-155	29	-228	0.7806298	-0.008972441	0.00143437	-0.6249275
5	100	1555432134	7.747	-41.114	1014.613	-2.560976	1.585366	0.3658537	-155	28	-228	0.7806271	-0.009216591	0.00143437	-0.6249276
5	100	1555432134	8.296	-35.136	1012.295	-2.804878	1.707317	0.2439024	-155	29	-229	0.780631	-0.008850368	0.001586962	-0.6249275
5	100	1555432134	2.745	-28.243	1014.186	-2.682927	1.707317	0.2439024	-154	29	-228	0.7806369	-0.008301036	0.001678518	-0.6249276
5	100	1555432134	3.233	-35.197	996.801	-2.926829	1.585366	0.3658537	-156	31	-232	0.7806385	-0.008056886	0.00204474	-0.6249275
5	100	1555432134	0.549	-29.524	1017.114	-2.682927	1.463415	0.3658537	-155	31	-227	0.7806423	-0.007599109	0.002319407	-0.6249275
5	100	1555432134	12.383	-36.112	999.058	-2.926829	1.829268	0.2439024	-155	30	-228	0.7806423	-0.007690665	0.00204474	-0.6249276
5	100	1555432134	5.917	-30.927	1028.704	-2.682927	1.341463	0.3658537	-157	29	-227	0.7806419	-0.007721183	0.002075259	-0.6249275
5	100	1555432134	4.819	-33.916	1029.802	-3.04878	1.341463	0.4878049	-156	31	-227	0.7806394	-0.007995849	0.001953185	-0.6249275
5	100	1555432134	5.612	-35.136	1015.284	-2.682927	1.585366	0.3658537	-155	30	-226	0.7806378	-0.008148442	0.001953185	-0.6249275
5	100	1555432134	3.233	-36.173	1030.595	-2.804878	1.463415	0.2439024	-155	31	-228	0.7806364	-0.008270516	0.002014222	-0.6249275
5	100	1555432134	7.991	-32.33	1001.376	-3.04878	1.341463	0.3658537	-155	29	-228	0.7806345	-0.008484146	0.001861629	-0.6249275
5	100	1555432134	3.904	-35.502	991.006	-2.682927	1.341463	0	-154	30	-228	0.7806343	-0.008545183	0.001617481	-0.6249275
5	100	1555432134	9.943	-31.476	1018.883	-2.560976	1.219512	0.1219512	-158	29	-228	0.7806375	-0.00820948	0.001831111	-0.6249276
5	100	1555432134	7.93	-37.332	996.618	-2.560976	1.463415	0.2439024	-155	29	-229	0.7806379	-0.008148443	0.001922666	-0.6249276
5	100	1555432134	2.196	-31.598	1026.691	-2.926829	1.341463	0.6097561	-156	29	-228	0.7806154	-0.007904294	0.002136296	-0.624958
5	100	1555432134	6.039	-35.136	1034.926	-2.682927	1.463415	0.2439024	-154	30	-226	0.7806158	-0.007904294	0.001983703	-0.624958
5	100	1555432134	-5.978	-39.711	992.47	-2.804878	1.341463	0.4878049	-157	29	-227	0.7806165	-0.007812739	0.002105777	-0.6249581
5	100	1555432134	6.039	-26.84	1012.783	-2.804878	1.707317	0.2439024	-155	30	-237	0.780618	-0.007660147	0.002105777	-0.6249581
5	100	1555432134	13.908	-34.892	995.459	-2.439024	1.95122	0.2439024	-156	29	-227	0.7806134	-0.008148442	0.001953185	-0.624958
5	100	1555432134	14.579	-32.94	1005.341	-2.682927	1.463415	0.3658537	-157	30	-228	0.7806133	-0.008239998	0.001556444	-0.624958
5	100	1555432134	10.553	-36.722	1013.088	-2.560976	1.341463	0.2439024	-155	29	-228	0.7806088	-0.008636738	0.001678518	-0.624958
5	100	1555432134	4.087	-44.042	1017.297	-2.439024	1.829268	0.4878049	-154	29	-228	0.7806069	-0.008728294	0.00204474	-0.624958
5	100	1555432134	9.516	-34.953	1018.273	-2.682927	1.463415	0.3658537	-157	31	-229	0.7806089	-0.008575701	0.001922666	-0.624958
5	100	1555432134	6.161	-38.247	1018.151	-2.804878	1.585366	0.3658537	-155	29	-226	0.7806078	-0.008636738	0.002075259	-0.624958
5	100	1555432134	3.172	-39.711	1010.648	-2.926829	1.707317	0.1219512	-156	30	-226	0.7806081	-0.008545184	0.002349925	-0.6249581
5	100	1555432134	1.891	-29.219	1011.502	-2.804878	1.341463	0.3658537	-155	31	-228	0.7806101	-0.008331553	0.002410962	-0.624958
5	100	1555432134	4.453	-35.197	1004.182	-2.926829	1.585366	0	-156	30	-229	0.7805871	-0.008178961	0.002502518	-0.6249886
5	100	1555432134	4.819	-33.855	1004.426	-2.926829	1.463415	0.4878049	-154	30	-227	0.7805872	-0.008209479	0.002349925	-0.6249886
5	100	1555432134	9.577	-36.112	1001.437	-2.804878	1.219512	0.2439024	-157	29	-227	0.7805856	-0.00839259	0.002227851	-0.6249886
5	100	1555432134	-1.281	-37.515	1024.312	-2.804878	1.463415	0	-155	30	-228	0.7805872	-0.008270516	0.002136296	-0.6249886
5	100	1555432134	14.762	-34.038	1021.994	-2.926829	1.707317	0.2439024	-155	29	-228	0.7805886	-0.008178961	0.001983703	-0.6249886
5	100	1555432134	-6.405	-38.491	1006.866	-2.682927	1.463415	0.2439024	-154	30	-233	0.7805912	-0.007843258	0.002288888	-0.6249886
5	100	1555432134	3.965	-31.72	1014.369	-2.560976	1.707317	0.4878049	-156	29	-227	0.7805915	-0.007965331	0.001678518	-0.6249886
5	100	1555432134	12.871	-35.319	1006.134	-3.04878	1.341463	0.2439024	-156	30	-228	0.7805896	-0.008117924	0.001800592	-0.6249886
5	100	1555432134	3.965	-31.72	1007.293	-2.804878	1.463415	0.2439024	-155	29	-228	0.780587	-0.008331553	0.001953185	-0.6249886
5	100	1555432134	9.333	-33.489	1011.441	-2.560976	1.463415	0.2439024	-153	30	-227	0.780586	-0.008484146	0.001678518	-0.6249886
5	100	1555432134	2.44	-33.123	1017.541	-2.804878	1.341463	0.3658537	-155	30	-228	0.7805868	-0.008362072	0.001892148	-0.6249886
5	100	1555432134	11.956	-32.208	1023.946	-2.682927	1.463415	0.3658537	-154	30	-229	0.7805886	-0.008239998	0.001709037	-0.6249886
5	100	1555432134	-3.416	-36.417	1004.914	-2.682927	1.219512	0	-156	29	-228	0.7805926	-0.007812738	0.001861629	-0.6249886
5	100	1555432134	3.599	-37.82	1015.345	-2.682927	1.707317	0.3658537	-155	31	-228	0.780568	-0.007812738	0.001922666	-0.6250191
5	100	1555432134	-2.196	-35.807	1005.951	-2.682927	1.219512	0.3658537	-156	30	-228	0.7805683	-0.007629627	0.002471999	-0.6250191
5	100	1555432134	12.749	-33.977	1013.759	-2.682927	1.585366	0.2439024	-154	28	-228	0.7805673	-0.00778222	0.002319407	-0.6250191
5	100	1555432134	9.455	-31.72	1013.088	-2.804878	1.341463	0.3658537	-157	30	-229	0.7805662	-0.007904295	0.00225837	-0.6250191
5	100	1555432134	2.013	-36.356	1023.397	-2.560976	1.463415	0.4878049	-155	28	-227	0.7805647	-0.007965331	0.002563555	-0.6250191
5	100	1555432134	8.54	-38.247	1016.748	-2.804878	1.341463	0.7317073	-159	30	-228	0.7805626	-0.008270516	0.002197333	-0.6250191
5	100	1555432135	5.063	-33.306	1014.369	-2.682927	1.463415	0.1219512	-156	31	-228	0.7805631	-0.008209479	0.00225837	-0.6250191
5	100	1555432135	8.662	-34.282	1009.123	-2.804878	1.707317	0.4878049	-156	30	-228	0.7805625	-0.008209479	0.002441481	-0.6250191
5	100	1555432135	2.44	-37.515	1003.145	-2.926829	1.463415	0.3658537	-154	29	-226	0.7805595	-0.008453628	0.002563555	-0.6250191
5	100	1555432135	12.81	-31.476	1019.432	-2.682927	1.707317	0	-155	29	-229	0.7805607	-0.008453627	0.002166814	-0.6250191
5	100	1555432135	8.967	-37.698	1013.942	-2.682927	1.707317	0.3658537	-155	29	-228	0.780559	-0.008545183	0.002410962	-0.6250191
5	100	1555432135	4.392	-33.672	1031.937	-3.04878	1.585366	0.2439024	-157	28	-228	0.7805601	-0.00842311	0.002502518	-0.6250191
5	100	1555432135	8.723001	-41.114	1023.214	-2.560976	1.341463	0.3658537	-153	30	-228	0.7805555	-0.00881985	0.002563555	-0.6250191
5	100	1555432135	7.259	-39.223	1014.857	-2.804878	1.585366	0.4878049	-154	30	-227	0.7805562	-0.008697775	0.002746666	-0.6250191
5	100	1555432135	8.357	-36.539	1019.31	-2.560976	1.707317	-0.1219512	-155	29	-228	0.7805567	-0.008575701	0.002960295	-0.6250191
5	100	1555432135	1.403	-32.513	1001.742	-2.682927	1.707317	0.3658537	-156	29	-227	0.7805554	-0.008758812	0.002777184	-0.6250191
5	100	1555432135	8.54	-29.341	1027.606	-2.804878	1.829268	0	-155	30	-228	0.7805595	-0.008453628	0.002563555	-0.6250191
5	100	1555432135	6.1	-35.807	1019.493	-2.804878	1.463415	0.4878049	-157	28	-230	0.7805595	-0.00839259	0.002746666	-0.6250191
5	100	1555432135	9.577	-36.905	1022.238	-2.804878	1.463415	0.1219512	-154	29	-228	0.7805562	-0.008789331	0.002441481	-0.6250191
5	100	1555432135	11.529	-38.674	1020.042	-2.804878	1.463415	0.4878049	-156	29	-228	0.7805794	-0.008972442	0.002136296	-0.6249886
5	100	1555432135	3.111	-40.321	1036.512	-2.804878	1.463415	0.4878049	-154	29	-228	0.7805753	-0.009308145	0.002197333	-0.6249886
5	100	1555432135	7.747	-38.979	988.993	-2.682927	1.707317	0.2439024	-156	29	-228	0.7805734	-0.009521775	0.001953185	-0.6249886
5	100	1555432135	11.346	-29.951	1008.025	-2.804878	1.829268	0.2439024	-155	29	-227	0.780575	-0.009399701	0.001892148	-0.6249886
5	100	1555432135	12.2	-33.672	1014.43	-2.804878	1.95122	0.2439024	-157	30	-228	0.7805726	-0.00961333	0.001831111	-0.6249886
5	100	1555432135	11.59	-36.295	1007.964	-2.926829	1.463415	0	-155	31	-228	0.7805732	-0.009552293	0.001861629	-0.6249886
5	100	1555432135	14.945	-35.197	1031.083	-2.804878	1.463415	0.6097561	-156	29	-229	0.7805758	-0.009308145	0.00204474	-0.6249886
5	100	1555432135	3.05	-34.526	1009.184	-3.04878	1.463415	0.3658537	-154	30	-227	0.7805779	-0.009125034	0.00204474	-0.6249886
5	100	1555432135	0.488	-38.552	1013.942	-2.926829	1.707317	0.3658537	-157	27	-228	0.7805765	-0.009216591	0.002166814	-0.6249886
5	100	1555432135	8.784	-37.271	990.884	-2.926829	1.341463	0.1219512	-155	31	-227	0.7805741	-0.009460739	0.001983703	-0.6249886
5	100	1555432135	7.686	-33.855	1005.219	-2.804878	1.463415	0.2439024	-155	31	-229	0.7805755	-0.009369182	0.001861629	-0.6249886
5	100	1555432135	13.847	-35.807	1022.726	-3.04878	1.463415	0.3658537	-155	32	-228	0.780573	-0.009552293	0.001983703	-0.6249886
5	100	1555432135	4.697	-33.123	1014.796	-2.926829	1.707317	0.4878049	-157	28	-229	0.7805741	-0.009460738	0.001953185	-0.6249886
5	100	1555432135	10.797	-35.258	1013.942	-2.560976	1.585366	0.3658537	-156	29	-228	0.7805784	-0.009125034	0.001831111	-0.6249886
5	100	1555432135	4.941	-40.626	1018.395	-2.804878	1.707317	0.4878049	-157	30	-229	0.7805769	-0.009247108	0.001861629	-0.6249886
5	100	1555432135	2.684	-37.088	1023.397	-2.682927	1.707317	0.4878049	-153	30	-226	0.7805778	-0.009125035	0.002105777	-0.6249886
5	100	1555432135	12.139	-38.308	1000.522	-2.560976	1.341463	0.3658537	-156	31	-228	0.7805764	-0.009277627	0.001922666	-0.6249886
5	100	1555432135	7.686	-34.038	1003.45	-2.682927	1.707317	0.4878049	-156	30	-228	0.7805762	-0.009308145	0.001861629	-0.6249886
5	100	1555432135	15.555	-34.831	1014.125	-2.682927	1.707317	0.6097561	-157	29	-229	0.7805758	-0.009338664	0.001892148	-0.6249886
5	100	1555432135	2.745	-36.417	1019.554	-2.682927	1.585366	0.2439024	-154	30	-228	0.7805783	-0.009155553	0.001739555	-0.6249886
5	100	1555432135	15.311	-35.075	1019.249	-2.682927	1.463415	0.2439024	-157	30	-228	0.7805803	-0.00903348	0.00143437	-0.6249886
5	100	1555432135	1.769	-35.685	1007.415	-2.682927	1.829268	0.3658537	-155	29	-228	0.7805827	-0.008789332	0.001678518	-0.6249886
5	100	1555432135	2.501	-35.99	1010.648	-2.804878	1.707317	0.1219512	-157	32	-228	0.780584	-0.008728294	0.001342814	-0.6249886
5	100	1555432135	2.623	-36.844	1009.123	-2.804878	1.585366	0.6097561	-155	29	-228	0.7805854	-0.008514664	0.001800592	-0.6249886
5	100	1555432135	0.427	-33.001	1015.894	-2.926829	1.463415	0.1219512	-157	30	-228	0.7805887	-0.008148443	0.00204474	-0.6249886
5	100	1555432135	10.797	-30.744	1009.672	-2.804878	1.585366	0.1219512	-154	30	-228	0.7805912	-0.007934813	0.001953185	-0.6249886
5	100	1555432135	1.098	-37.698	1018.334	-2.682927	1.463415	0.2439024	-157	29	-228	0.7805914	-0.007751701	0.002502518	-0.6249886
5	100	1555432135	6.344	-35.746	1019.493	-2.804878	1.463415	0.2439024	-154	30	-226	0.7805905	-0.007873775	0.002410962	-0.6249886
5	100	1555432135	-2.013	-35.441	1012.112	-2.682927	1.585366	0.4878049	-155	28	-228	0.780591	-0.007873775	0.00225837	-0.6249886
5	100	1555432135	9.943	-30.683	1018.578	-2.682927	1.219512	0.1219512	-155	30	-229	0.7805958	-0.007385479	0.002227851	-0.6249886
5	100	1555432135	3.294	-33.977	1012.661	-2.682927	1.585366	0.2439024	-156	30	-228	0.7805949	-0.007415998	0.002441481	-0.6249886
5	100	1555432135	9.211	-31.293	1014.369	-2.682927	1.463415	0.3658537	-154	30	-226	0.7805965	-0.007354961	0.002075259	-0.6249886
5	100	1555432135	11.285	-32.635	1013.515	-2.439024	1.707317	0.4878049	-155	29	-229	0.7805968	-0.007354961	0.001953185	-0.6249886
5	100	1555432135	3.416	-30.866	1039.196	-2.804878	1.707317	0.3658537	-153	32	-227	0.7805942	-0.007538072	0.00225837	-0.6249886
5	100	1555432135	4.087	-42.212	1023.519	-2.560976	1.707317	0.3658537	-156	30	-229	0.7805915	-0.007812738	0.00225837	-0.6249886
5	100	1555432135	2.501	-40.626	1013.088	-2.560976	1.341463	0.2439024	-154	31	-228	0.7805899	-0.007965331	0.002319407	-0.6249886
5	100	1555432135	6.649	-37.576	1016.077	-2.560976	1.707317	0.3658537	-157	31	-228	0.7805877	-0.008087405	0.002594073	-0.6249886
5	100	1555432135	8.906	-32.33	998.997	-2.682927	1.585366	0.2439024	-157	30	-228	0.7805862	-0.008331553	0.00225837	-0.6249886
5	100	1555432135	6.954	-35.014	1018.334	-2.682927	1.829268	0	-156	29	-228	0.7805883	-0.008087406	0.002441481	-0.6249886
5	100	1555432135	5.551	-34.892	1015.711	-2.926829	2.073171	0.7317073	-153	31	-228	0.7805902	-0.00778222	0.002777185	-0.6249886
5	100	1555432135	4.941	-34.282	1034.804	-2.926829	1.463415	0.3658537	-156	30	-228	0.7805905	-0.007660146	0.003021333	-0.6249886
5	100	1555432135	10.187	-40.931	1020.103	-2.804878	1.219512	0.3658537	-156	30	-228	0.7805865	-0.008117924	0.002838221	-0.6249886
5	100	1555432135	0.183	-37.454	1035.048	-2.682927	1.707317	0.2439024	-156	29	-227	0.7805859	-0.008148442	0.002929777	-0.6249886
5	100	1555432135	14.701	-39.406	989.542	-2.804878	1.463415	0.2439024	-155	31	-228	0.7805812	-0.008728294	0.002471999	-0.6249886
5	100	1555432135	12.81	-27.023	1008.086	-2.804878	1.707317	0.2439024	-155	31	-228	0.7805835	-0.008636739	0.00204474	-0.6249886
5	100	1555432135	19.398	-37.332	1013.149	-2.682927	1.463415	0.6097561	-156	30	-228	0.7806051	-0.008941923	0.001770074	-0.624958
5	100	1555432135	6.71	-36.051	1013.759	-2.560976	1.463415	0.3658537	-157	29	-226	0.7806041	-0.009033479	0.001739555	-0.624958
5	100	1555432135	3.477	-36.844	1024.556	-2.682927	1.707317	0.3658537	-155	29	-226	0.7806033	-0.00903348	0.002105777	-0.6249581
5	100	1555432135	14.823	-35.563	1014.796	-2.682927	1.463415	0.4878049	-157	29	-228	0.7806017	-0.009216591	0.001861629	-0.6249581
5	100	1555432135	4.758	-35.136	1027.24	-2.804878	1.829268	0.1219512	-153	32	-227	0.7806022	-0.00921659	0.001678518	-0.624958
5	100	1555432135	14.091	-34.16	1003.999	-2.926829	1.585366	0.3658537	-157	30	-229	0.7806011	-0.009247108	0.001953185	-0.624958
5	100	1555432135	-2.684	-39.467	1003.511	-2.926829	0.9756098	0.4878049	-155	30	-227	0.7806015	-0.009186072	0.002105777	-0.6249581
5	100	1555432135	14.335	-32.33	1019.249	-2.560976	1.341463	0.6097561	-155	29	-227	0.7806025	-0.009094516	0.002105777	-0.624958
5	100	1555432135	11.773	-36.966	1016.748	-2.804878	1.707317	0.3658537	-155	30	-228	0.7806036	-0.008911405	0.002471999	-0.624958
5	100	1555432135	-2.867	-37.149	1030.473	-2.682927	1.707317	0.2439024	-158	29	-228	0.780605	-0.008667257	0.00286874	-0.624958
5	100	1555432135	4.941	-37.942	1022.36	-2.682927	1.829268	0.1219512	-155	31	-226	0.7806068	-0.008575701	0.002624592	-0.624958
5	100	1555432135	2.379	-36.234	1013.759	-2.682927	1.585366	0	-156	31	-228	0.7806096	-0.008270516	0.002777184	-0.624958
5	100	1555432135	4.453	-32.208	1013.637	-2.682927	1.585366	0.3658537	-155	30	-227	0.7806129	-0.008026368	0.002563555	-0.624958
5	100	1555432135	7.381	-32.513	1003.938	-2.560976	1.829268	0.3658537	-156	30	-228	0.7806129	-0.008056886	0.002441481	-0.624958
5	100	1555432135	8.235	-32.33	1014.796	-2.682927	1.707317	0.2439024	-154	30	-227	0.7806157	-0.007843257	0.00225837	-0.624958
5	100	1555432135	11.285	-35.197	1002.962	-2.804878	1.341463	0.3658537	-157	29	-228	0.780615	-0.007965331	0.002075259	-0.624958
5	100	1555432135	5.978	-36.112	1022.604	-2.926829	1.585366	0.3658537	-155	29	-227	0.7806124	-0.008270516	0.001831111	-0.624958
5	100	1555432135	16.043	-37.637	1025.044	-2.560976	1.463415	0.3658537	-156	29	-228	0.7806112	-0.008453627	0.001495407	-0.624958
5	100	1555432135	11.895	-36.844	1015.711	-2.804878	1.341463	0.3658537	-155	29	-228	0.7806045	-0.009063997	0.001373333	-0.624958
5	100	1555432135	2.379	-33.794	1018.944	-2.804878	1.463415	0.3658537	-157	29	-226	0.7806067	-0.008850368	0.001525925	-0.624958
5	100	1555432135	6.222	-35.624	1008.086	-2.682927	1.463415	0.3658537	-155	29	-228	0.7806074	-0.008758812	0.001678518	-0.624958
5	100	1555432135	1.464	-32.391	1007.598	-2.682927	1.463415	0.4878049	-157	29	-226	0.7806078	-0.008697776	0.001831111	-0.6249581
5	100	1555432135	13.42	-33.367	1014.369	-2.682927	1.219512	0.1219512	-155	31	-228	0.7806118	-0.008331553	0.001800592	-0.624958
5	100	1555432135	7.015	-35.99	1011.258	-2.682927	1.585366	0.3658537	-156	30	-226	0.7806131	-0.00820948	0.001831111	-0.6249581
5	100	1555432135	2.867	-33.001	1021.567	-2.560976	1.585366	0.4878049	-154	30	-227	0.7806141	-0.008056887	0.002075259	-0.6249581
5	100	1555432135	1.281	-40.626	1021.384	-2.682927	1.585366	0.3658537	-157	29	-227	0.7806108	-0.008362072	0.002075259	-0.624958
5	100	1555432135	3.843	-33.611	1013.393	-2.804878	1.95122	0.3658537	-155	30	-228	0.7806136	-0.008056886	0.002227851	-0.624958
5	100	1555432135	5.856	-30.866	1024.861	-2.804878	1.463415	0.4878049	-156	31	-228	0.7806174	-0.00778222	0.001861629	-0.624958
5	100	1555432135	0.183	-33.123	1012.966	-2.926829	1.341463	0.4878049	-155	29	-227	0.7806181	-0.007751701	0.001648	-0.624958
5	100	1555432135	5.856	-31.659	1014.43	-2.439024	1.707317	0.4878049	-156	30	-228	0.7806178	-0.007690665	0.00204474	-0.6249581
5	100	1555432135	7.564	-32.391	1022.482	-2.804878	1.341463	0.3658537	-154	31	-227	0.7806174	-0.00778222	0.001831111	-0.624958
5	100	1555432135	3.904	-33.611	1017.236	-2.804878	1.585366	0.2439024	-156	29	-228	0.7806174	-0.007812739	0.001709037	-0.6249581
5	100	1555432135	6.039	-35.624	1039.135	-2.804878	1.829268	0.2439024	-156	30	-228	0.7806141	-0.008117924	0.001800592	-0.624958
5	100	1555432135	8.479	-40.809	1026.935	-2.439024	1.585366	0.3658537	-158	30	-230	0.7806071	-0.008758813	0.001831111	-0.6249581
5	100	1555432135	7.503	-31.842	1041.514	-2.439024	1.707317	0.2439024	-155	30	-228	0.780604	-0.009033479	0.001800592	-0.624958
5	100	1555432135	3.965	-38.247	1006.561	-2.804878	1.341463	0.3658537	-156	28	-227	0.7806038	-0.008972441	0.002136295	-0.624958
5	100	1555432135	1.159	-33.062	1006.561	-2.926829	1.707317	0.1219512	-156	29	-227	0.7806031	-0.009094516	0.001892148	-0.624958
5	100	1555432135	11.895	-32.452	1043.283	-2.682927	1.585366	0.3658537	-157	29	-228	0.7806024	-0.009216591	0.001586963	-0.6249581
5	100	1555432135	7.259	-38.247	1025.105	-2.439024	1.829268	0.2439024	-155	30	-229	0.7806039	-0.008972442	0.002105777	-0.624958
5	100	1555432135	1.769	-32.025	1049.932	-2.804878	1.829268	0.4878049	-156	30	-228	0.780607	-0.008636738	0.002380444	-0.624958
5	100	1555432135	4.819	-40.199	1025.471	-2.560976	1.585366	0.1219512	-154	31	-228	0.7805864	-0.008270516	0.002410962	-0.6249886
5	100	1555432135	-6.1	-35.929	1015.65	-2.804878	1.219512	0.2439024	-156	27	-228	0.7805873	-0.008209479	0.002319407	-0.6249886
5	100	1555432135	8.052	-29.158	1018.212	-2.560976	1.341463	0.2439024	-154	31	-228	0.7805902	-0.007965332	0.002197333	-0.6249886
5	100	1555432135	-0.244	-28.182	1017.663	-2.804878	1.463415	0.3658537	-155	31	-228	0.7805916	-0.007873775	0.002014222	-0.6249886
5	100	1555432135	5.917	-31.659	1023.641	-2.804878	1.341463	0.3658537	-155	29	-226	0.7805918	-0.007873775	0.001953185	-0.6249886
5	100	1555432135	16.165	-30.805	1006.195	-3.04878	1.707317	0.3658537	-155	28	-229	0.7805927	-0.007843258	0.001709037	-0.6249886
5	100	1555432135	5.429	-30.927	1046.455	-2.682927	1.707317	0.7317073	-156	29	-228	0.7805935	-0.007690664	0.002014222	-0.6249886
5	100	1555432135	-0.793	-38.369	1026.874	-2.682927	1.585366	0.2439024	-158	32	-227	0.7805916	-0.007751701	0.002441481	-0.6249886
5	100	1555432135	-2.074	-33.855	1017.48	-2.804878	1.585366	0.3658537	-154	30	-228	0.7805901	-0.007904295	0.002441481	-0.6249886
5	100	1555432135	2.623	-33.672	1021.689	-2.926829	1.707317	0.2439024	-157	29	-229	0.7805911	-0.007843257	0.002319407	-0.6249886
5	100	1555432135	0.61	-37.332	1008.818	-2.560976	1.463415	0.3658537	-153	31	-228	0.7805892	-0.007995849	0.002441481	-0.6249886
5	100	1555432135	11.163	-28.731	1026.081	-2.804878	1.463415	0.2439024	-157	29	-228	0.7805914	-0.007843258	0.002227851	-0.6249886
5	100	1555432135	7.686	-34.16	1021.811	-2.682927	1.463415	0.4878049	-154	31	-229	0.7805904	-0.007873775	0.002441481	-0.6249886
5	100	1555432135	5.246	-31.354	1030.778	-2.682927	1.585366	0.1219512	-156	30	-228	0.7806163	-0.007812738	0.002136296	-0.624958
5	100	1555432136	16.348	-37.759	1027.911	-2.682927	1.219512	0.2439024	-154	29	-227	0.7805905	-0.007995849	0.001953185	-0.6249886
5	100	1555432136	7.381	-38.979	1016.748	-2.682927	1.585366	0.2439024	-155	30	-226	0.7806093	-0.008545184	0.001922666	-0.6249581
5	100	1555432136	1.403	-35.746	1018.822	-2.560976	1.707317	0.1219512	-154	31	-228	0.7806063	-0.008758812	0.002136296	-0.624958
5	100	1555432136	7.503	-37.21	1004.853	-2.682927	1.463415	0.2439024	-155	29	-227	0.7806044	-0.008972442	0.001953185	-0.624958
5	100	1555432136	8.662	-32.757	1018.7	-2.682927	1.707317	0.2439024	-155	29	-228	0.7806036	-0.009033479	0.001983703	-0.624958
5	100	1555432136	12.383	-35.258	1023.58	-2.926829	1.463415	0.2439024	-155	29	-228	0.7806005	-0.009277627	0.00204474	-0.624958
5	100	1555432136	5.551	-35.624	1021.689	-2.682927	1.463415	0.3658537	-155	31	-228	0.7805991	-0.009430219	0.001892148	-0.624958
5	100	1555432136	11.773	-34.038	1023.702	-2.804878	1.829268	0.3658537	-155	29	-228	0.7806013	-0.009308145	0.001556444	-0.624958
5	100	1555432136	3.111	-38.369	1018.334	-2.682927	1.585366	0.3658537	-153	30	-227	0.7806029	-0.00921659	0.001251259	-0.624958
5	100	1555432136	6.954	-31.903	1022.97	-2.804878	1.585366	0.3658537	-156	29	-226	0.7806033	-0.00921659	0.001007111	-0.624958
5	100	1555432136	16.165	-38.552	1010.831	-2.804878	1.829268	0.2439024	-155	29	-228	0.7806042	-0.009155553	0.0007934812	-0.624958
5	100	1555432136	9.882	-31.598	1021.567	-2.195122	1.585366	0.2439024	-155	30	-228	0.7806066	-0.008941923	0.0009460738	-0.624958
5	100	1555432136	8.723001	-33.306	1019.188	-2.804878	1.585366	0.3658537	-156	30	-226	0.7806054	-0.009033479	0.001007111	-0.624958
5	100	1555432136	4.819	-36.295	1019.31	-2.560976	1.463415	0.4878049	-155	29	-226	0.7806051	-0.009033479	0.00122074	-0.624958
5	100	1555432136	7.503	-32.269	1026.203	-2.804878	1.585366	0.2439024	-155	31	-226	0.7806067	-0.008880886	0.001312296	-0.624958
5	100	1555432136	4.697	-33.733	1019.981	-2.682927	1.097561	0.3658537	-155	29	-227	0.7806052	-0.009033479	0.001159703	-0.624958
5	100	1555432136	1.891	-30.012	1015.711	-2.804878	1.463415	0.3658537	-155	30	-228	0.7806059	-0.00900296	0.0009460738	-0.624958
5	100	1555432136	10.675	-33.306	991.677	-2.682927	1.585366	0.2439024	-157	30	-227	0.7806066	-0.008972442	0.0005188147	-0.624958
5	100	1555432136	6.405	-29.89	1012.112	-2.682927	1.341463	0.2439024	-155	30	-228	0.780611	-0.008575702	0.0006103702	-0.6249581
5	100	1555432136	8.662	-37.027	1001.315	-2.682927	1.707317	0.6097561	-155	30	-229	0.7806079	-0.008850368	0.0006714072	-0.624958
5	100	1555432136	7.625	-28.182	1038.098	-2.682927	1.829268	0.2439024	-155	31	-228	0.7806147	-0.008178961	0.001129185	-0.6249581
5	100	1555432136	9.577	-39.589	1021.079	-2.682927	1.341463	0.2439024	-155	30	-228	0.7806146	-0.008178961	0.00122074	-0.6249581
5	100	1555432136	5.063	-33.55	1040.477	-2.804878	1.585366	0.6097561	-156	30	-229	0.7806136	-0.00820948	0.001586963	-0.6249581
5	100	1555432136	9.882	-37.332	999.607	-2.682927	1.829268	0.1219512	-156	30	-228	0.7806104	-0.008545184	0.001342815	-0.6249581
5	100	1555432136	8.967	-35.38	993.629	-2.682927	1.95122	0.3658537	-156	30	-228	0.7806067	-0.008850368	0.001495407	-0.624958
5	100	1555432136	11.956	-38.735	1020.347	-2.560976	1.585366	0.4878049	-155	29	-228	0.7806044	-0.009033479	0.001617481	-0.624958
5	100	1555432136	5.551	-39.101	1018.822	-2.439024	1.341463	0.2439024	-155	30	-228	0.7806055	-0.008972442	0.001403851	-0.624958
5	100	1555432136	6.893	-34.343	1035.841	-2.804878	1.341463	0.1219512	-156	30	-227	0.7806056	-0.008911405	0.001739555	-0.624958
5	100	1555432136	4.209	-35.99	1010.77	-2.560976	1.463415	0.2439024	-155	31	-228	0.7806058	-0.008880887	0.001800592	-0.6249581
5	100	1555432136	7.137	-29.036	1014.979	-2.804878	1.341463	0.3658537	-155	31	-228	0.7806039	-0.009155553	0.001098666	-0.624958
5	100	1555432136	6.283	-30.317	1014.918	-2.682927	1.463415	0.4878049	-157	28	-229	0.780606	-0.008972442	0.001098666	-0.624958
5	100	1555432136	6.222	-33.489	1015.528	-2.926829	1.463415	0.4878049	-155	30	-228	0.7806083	-0.008728294	0.001403851	-0.624958
5	100	1555432136	17.446	-33.306	1008.818	-2.926829	1.585366	0.4878049	-155	31	-229	0.7806109	-0.008514664	0.001281777	-0.624958
5	100	1555432136	-0.305	-31.964	1041.697	-2.804878	1.585366	0.2439024	-154	30	-228	0.780616	-0.007965331	0.001617481	-0.624958
5	100	1555432136	0.854	-38.247	1023.885	-2.560976	1.585366	0.1219512	-155	30	-228	0.7805912	-0.007934813	0.001953185	-0.6249886
5	100	1555432136	1.037	-40.931	1015.223	-2.560976	1.219512	0.3658537	-155	30	-229	0.7805916	-0.007873775	0.002014222	-0.6249886
5	100	1555432136	5.307	-36.539	1007.171	-2.804878	1.829268	0.3658537	-154	30	-227	0.7806138	-0.007995849	0.002349925	-0.624958
5	100	1555432136	11.224	-31.049	1000.461	-2.682927	1.463415	0.2439024	-155	30	-228	0.7806115	-0.008362073	0.001831111	-0.6249581
5	100	1555432136	19.52	-34.343	1023.641	-2.682927	1.463415	0.4878049	-155	27	-227	0.780606	-0.008850368	0.001831111	-0.624958
5	100	1555432136	1.952	-37.759	1018.639	-2.804878	1.585366	0.2439024	-157	30	-228	0.7806028	-0.009063998	0.002166814	-0.6249581
5	100	1555432136	11.773	-36.6	1028.216	-2.439024	1.463415	0.3658537	-156	29	-228	0.7806039	-0.009033479	0.001861629	-0.624958
5	100	1555432136	7.869	-39.406	1015.711	-2.682927	1.707317	0.3658537	-155	28	-228	0.7806024	-0.009155553	0.001892148	-0.624958
5	100	1555432136	-1.525	-32.757	1016.321	-2.804878	1.463415	0.1219512	-155	29	-229	0.7806039	-0.009063998	0.001678518	-0.6249581
5	100	1555432136	2.684	-34.831	1014.674	-2.804878	1.463415	0.3658537	-154	30	-229	0.7806068	-0.008728294	0.002075259	-0.624958
5	100	1555432136	3.233	-33.977	1013.332	-2.682927	1.829268	0.3658537	-156	29	-227	0.7806135	-0.008117924	0.002014222	-0.624958
5	100	1555432136	7.869	-38.064	1018.517	-2.804878	1.341463	0.3658537	-156	31	-227	0.7806141	-0.008056887	0.002075259	-0.6249581
5	100	1555432136	-2.806	-34.343	1030.534	-2.682927	1.463415	0.6097561	-155	30	-227	0.7806125	-0.008087405	0.002502518	-0.624958
5	100	1555432136	5.185	-39.345	1017.907	-2.682927	1.463415	0.3658537	-154	31	-228	0.7806099	-0.008301035	0.002594073	-0.624958
5	100	1555432136	1.098	-35.38	1023.58	-2.682927	1.585366	0.3658537	-156	30	-227	0.7806079	-0.00839259	0.00286874	-0.624958
5	100	1555432136	2.135	-35.075	1014.674	-2.560976	1.341463	0.3658537	-156	30	-227	0.780609	-0.008270516	0.002929777	-0.624958
5	100	1555432136	0.427	-34.587	1012.661	-2.682927	1.829268	0.3658537	-156	30	-226	0.7806079	-0.008362072	0.002960295	-0.624958
5	100	1555432136	16.165	-30.805	1020.713	-2.926829	1.707317	0.2439024	-157	31	-228	0.7806081	-0.008453627	0.00265511	-0.624958
5	100	1555432136	11.895	-33.611	1014.43	-2.682927	1.829268	0.3658537	-157	30	-228	0.7806063	-0.008636738	0.002594073	-0.624958
5	100	1555432136	3.172	-35.807	1019.615	-2.560976	1.707317	0.3658537	-154	31	-228	0.7806063	-0.008636738	0.002594073	-0.624958
5	100	1555432136	3.721	-40.504	1016.992	-2.682927	1.463415	0.2439024	-156	30	-227	0.7806046	-0.008819849	0.002471999	-0.624958
5	100	1555432136	3.111	-35.014	1020.225	-2.560976	1.463415	0.3658537	-156	30	-228	0.7806079	-0.008484146	0.002594073	-0.624958
5	100	1555432136	7.869	-30.256	997.411	-2.560976	1.219512	0.4878049	-156	29	-227	0.7806351	-0.008301036	0.002380444	-0.6249276
5	100	1555432136	4.575	-36.295	1002.047	-2.804878	1.707317	0.3658537	-156	30	-229	0.780635	-0.008331553	0.002288888	-0.6249275
5	100	1555432136	10.675	-33.062	1025.959	-2.682927	1.463415	0.4878049	-157	29	-227	0.7806333	-0.008514665	0.002197333	-0.6249276
5	100	1555432136	11.163	-31.354	1005.89	-2.804878	1.341463	0.4878049	-156	31	-228	0.7806309	-0.008789331	0.001953185	-0.6249275
5	100	1555432136	3.904	-41.541	1018.334	-2.804878	1.341463	0.1219512	-156	31	-229	0.7806287	-0.008941923	0.002105777	-0.6249275
5	100	1555432136	5.551	-36.112	1010.099	-2.682927	1.829268	0.2439024	-155	31	-228	0.7806261	-0.009186071	0.002014222	-0.6249275
5	100	1555432136	7.991	-37.027	1008.33	-2.682927	1.463415	0.1219512	-156	28	-228	0.7806227	-0.009460739	0.002075259	-0.6249276
5	100	1555432136	9.455	-38.552	990.274	-2.926829	1.219512	0.3658537	-155	31	-228	0.7806205	-0.009674367	0.001922666	-0.6249275
5	100	1555432136	4.148	-28.792	1008.574	-2.682927	1.707317	0.6097561	-156	29	-227	0.7806265	-0.009155553	0.002014222	-0.6249275
5	100	1555432136	6.283	-37.332	1012.173	-2.682927	1.95122	0.4878049	-155	29	-229	0.780626	-0.00921659	0.001922666	-0.6249275
5	100	1555432136	10.065	-37.332	1019.981	-2.439024	1.219512	0.4878049	-155	29	-228	0.7806259	-0.009277627	0.001648	-0.6249275
5	100	1555432136	7.381	-33.062	1022.177	-2.560976	1.585366	0.3658537	-155	29	-228	0.7806318	-0.008728294	0.001861629	-0.6249275
5	100	1555432136	-1.952	-40.077	993.446	-2.560976	1.341463	0.3658537	-155	29	-228	0.7806324	-0.008636739	0.00204474	-0.6249276
5	100	1555432136	3.172	-33.855	1008.94	-2.560976	1.219512	0.4878049	-155	31	-228	0.780634	-0.008484146	0.00204474	-0.6249275
5	100	1555432136	2.806	-30.317	1005.768	-2.804878	1.585366	0.3658537	-155	30	-228	0.7806347	-0.008423109	0.00204474	-0.6249275
5	100	1555432136	4.026	-30.866	1013.698	-2.926829	1.95122	0.4878049	-155	30	-228	0.7806371	-0.008117924	0.002319407	-0.6249275
5	100	1555432136	15.311	-35.258	1004.304	-2.926829	1.463415	0.3658537	-155	30	-227	0.7806389	-0.008026369	0.00204474	-0.6249276
5	100	1555432136	1.769	-31.598	1035.414	-2.682927	1.707317	0.2439024	-157	30	-229	0.7806386	-0.007904294	0.002563555	-0.6249275
5	100	1555432136	10.126	-40.504	1018.334	-2.804878	1.463415	0.3658537	-155	30	-227	0.7806359	-0.008209479	0.002410962	-0.6249275
5	100	1555432136	6.039	-34.282	1026.386	-2.926829	1.829268	0.4878049	-157	31	-228	0.7806341	-0.008362073	0.002471999	-0.6249276
5	100	1555432136	8.418	-33.794	997.655	-2.560976	1.463415	0.4878049	-154	31	-229	0.780633	-0.008453628	0.002502518	-0.6249276
5	100	1555432136	-0.183	-30.744	1000.339	-2.560976	1.341463	0.3658537	-157	29	-227	0.7806345	-0.008392591	0.002227851	-0.6249276
5	100	1555432136	12.932	-34.221	1014.857	-2.439024	1.829268	0.3658537	-153	32	-228	0.780633	-0.008545184	0.002166814	-0.6249276
5	100	1555432136	7.015	-37.637	1009.855	-2.560976	1.585366	0.3658537	-156	30	-228	0.7806352	-0.008301035	0.002319407	-0.6249275
5	100	1555432136	-0.915	-34.038	1034.377	-2.317073	1.707317	0.2439024	-154	30	-227	0.7806351	-0.008301035	0.002349925	-0.6249275
5	100	1555432136	4.392	-37.454	1016.382	-2.804878	1.463415	0.4878049	-156	28	-228	0.7806344	-0.008362073	0.002380444	-0.6249276
5	100	1555432136	-1.647	-34.343	1015.711	-2.804878	1.463415	0.2439024	-156	32	-229	0.7806338	-0.008270516	0.002838221	-0.6249275
5	100	1555432136	8.601	-32.696	1001.559	-2.804878	1.585366	0.6097561	-157	29	-227	0.780633	-0.008423109	0.002594073	-0.6249275
5	100	1555432136	10.431	-33.855	999.851	-2.560976	1.219512	0.1219512	-155	30	-229	0.7806306	-0.008728294	0.002288888	-0.6249275
5	100	1555432136	13.725	-35.807	1011.868	-2.804878	1.341463	0.2439024	-154	29	-228	0.7806293	-0.008880886	0.002166814	-0.6249275
5	100	1555432136	8.113	-34.16	1012.539	-2.439024	1.463415	0.2439024	-154	29	-229	0.7806281	-0.009063997	0.001770074	-0.6249275
5	100	1555432136	11.407	-36.966	1018.029	-2.682927	1.341463	0.2439024	-155	28	-227	0.7806278	-0.009125034	0.001617481	-0.6249275
5	100	1555432136	11.102	-35.502	1015.955	-2.926829	1.585366	0.2439024	-153	30	-228	0.780625	-0.00943022	0.001129185	-0.6249276
5	100	1555432136	-1.586	-36.6	1010.343	-2.560976	1.585366	0.4878049	-156	31	-229	0.7806265	-0.009277627	0.001342814	-0.6249275
5	100	1555432136	6.283	-31.293	1011.929	-2.439024	1.585366	0.4878049	-156	30	-227	0.7806305	-0.008880886	0.001648	-0.6249275
5	100	1555432136	5.795	-31.659	1007.537	-2.317073	1.707317	0.4878049	-157	30	-227	0.7806346	-0.008514665	0.001678518	-0.6249276
5	100	1555432136	5.063	-34.587	1011.136	-2.804878	1.463415	0.3658537	-155	30	-228	0.7806392	-0.008026368	0.001892148	-0.6249275
5	100	1555432136	8.967	-34.831	1013.576	-2.682927	1.341463	0.1219512	-155	28	-228	0.7806398	-0.007995849	0.001770074	-0.6249275
5	100	1555432136	8.357	-32.818	1016.26	-2.560976	1.341463	0.2439024	-153	32	-229	0.780641	-0.007843257	0.001953185	-0.6249275
5	100	1555432136	7.93	-36.234	1013.271	-2.682927	1.585366	0.2439024	-156	29	-228	0.7806399	-0.007965331	0.001861629	-0.6249275
5	100	1555432136	-2.623	-40.443	1005.219	-2.804878	1.463415	0.3658537	-155	30	-228	0.7806388	-0.008056886	0.001953185	-0.6249275
5	100	1555432136	5.49	-33.733	1012.783	-2.560976	1.585366	0.2439024	-155	30	-228	0.7806405	-0.007904294	0.001861629	-0.6249275
5	100	1555432137	4.636	-30.256	1007.964	-2.682927	1.707317	0.2439024	-154	32	-229	0.7806413	-0.00778222	0.002075259	-0.6249275
5	100	1555432137	4.575	-32.818	1001.62	-2.560976	1.707317	0.6097561	-157	30	-227	0.7806419	-0.007629627	0.002380444	-0.6249275
5	100	1555432137	7.015	-35.929	1004.609	-2.682927	1.341463	0.2439024	-155	32	-229	0.780642	-0.007660146	0.002227851	-0.6249275
5	100	1555432137	10.126	-31.842	1007.293	-2.804878	1.707317	0.3658537	-156	29	-228	0.7806388	-0.008026368	0.002075259	-0.6249275
5	100	1555432137	5.673	-40.504	1036.268	-2.682927	1.829268	0.3658537	-156	30	-228	0.7806378	-0.008117924	0.002075259	-0.6249275
5	100	1555432137	4.636	-33.977	1004.121	-2.804878	1.585366	0.2439024	-157	29	-227	0.780635	-0.008453627	0.001770074	-0.6249275
5	100	1555432137	9.150001	-36.295	1010.709	-3.04878	1.219512	0.3658537	-155	30	-227	0.7806314	-0.008850368	0.001403851	-0.6249275
5	100	1555432137	9.76	-37.454	989.847	-2.804878	1.219512	0.3658537	-155	29	-227	0.780629	-0.009063998	0.001373333	-0.6249276
5	100	1555432137	8.174	-35.563	995.276	-2.804878	1.707317	0.3658537	-156	30	-228	0.7806284	-0.009094516	0.001495407	-0.6249275
5	100	1555432137	6.832	-32.208	1033.584	-2.439024	1.707317	0.3658537	-156	29	-227	0.7806278	-0.009094516	0.001770074	-0.6249275
5	100	1555432137	4.087	-34.709	1010.587	-2.804878	1.585366	0.2439024	-156	30	-228	0.7806301	-0.008911406	0.001709037	-0.6249276
5	100	1555432137	6.893	-38.735	1021.384	-2.804878	1.341463	0.1219512	-157	29	-228	0.7806036	-0.009063997	0.001831111	-0.624958
5	100	1555432137	5.429	-44.652	1017.907	-2.560976	1.463415	0.2439024	-154	30	-228	0.7806028	-0.009063998	0.002166814	-0.6249581
