Log Mode	Log Freq	Timestamp	AccX	AccY	AccZ	GyroX	GyroY	GyroZ	MagnX	MagnY	MagnZ	qw	qi	qj	qk
5	100	1555414552	687.836	380.823	580.354	-7.926829	8.04878	0.9756098	-592	122	-113	0.7880057	0.002899258	-0.4328745	-0.437788
5	100	1555414552	-812.703	-108.946	726.876	-11.70732	-81.82927	8.780488	125	60	-128	0.1839782	-0.4288766	0.002594073	0.8844264
5	100	1555414552	-812.52	-108.824	733.952	-37.07317	-145.4878	14.7561	123	59	-136	0.1289941	-0.4272286	0.0007019257	0.8948942
5	100	1555414552	-787.144	-45.628	616.954	-56.34146	-174.6342	23.04878	118	58	-145	0.113618	-0.4210334	-0.001770074	0.8998993
5	100	1555414552	-800.259	-137.433	411.689	-1.097561	37.07317	1.341463	113	57	-157	0.1072022	-0.4247871	-0.001251259	0.8989227
5	100	1555414552	-805.749	-137.799	716.018	-0.3658537	-9.390244	0.1219512	111	59	-158	0.1042392	-0.427839	3.051851E-05	0.897824
5	100	1555414552	-758.352	-146.522	617.198	-0.8536586	4.390244	0.3658537	111	58	-159	0.102585	-0.4295785	0.001037629	0.8971831
5	100	1555414552	-729.743	-123.342	724.375	-12.80488	3.658537	3.170732	109	58	-158	0.1008821	-0.4313791	0.001251259	0.8965117
5	100	1555414552	-743.59	-120.719	692.777	-12.56098	4.02439	2.682927	111	59	-156	0.09944198	-0.4325999	0.001098666	0.8960845
5	100	1555414552	-769.454	-128.344	708.149	-9.268293	10.48781	2.073171	110	59	-159	0.09864309	-0.4337291	0.001190222	0.8956267
5	100	1555414552	-750.483	-122.183	697.352	-7.560976	18.53659	1.097561	110	59	-157	0.09813876	-0.4351634	0.001403851	0.8949858
5	100	1555414552	-768.966	-124.074	702.049	-8.292683	23.53659	0.3658537	110	58	-157	0.0974693	-0.4366283	0.001617481	0.8943449
5	100	1555414552	-752.862	-124.257	706.563	-6.707317	31.70732	-0.2439024	112	59	-156	0.09719802	-0.4381848	0.001831111	0.8936125
5	100	1555414552	-756.583	-116.205	706.258	1.097561	43.29268	-1.707317	112	60	-154	0.09746502	-0.4399854	0.002380444	0.8926969
5	100	1555415325	-753.045	-127.124	700.463	12.68293	54.2683	-3.170732	112	60	-159	0.09795334	-0.4420911	0.003631703	0.8915982
5	100	1555415325	-752.496	-133.407	678.869	15.36585	65	-3.902439	115	60	-147	0.09836958	-0.444319	0.004821924	0.8904386
5	100	1555415325	-738.588	-118.645	671.122	14.26829	77.80488	-4.634147	116	60	-145	0.09911448	-0.4469436	0.005920591	0.8890347
5	100	1555415325	-773.968	-130.418	672.098	23.04878	97.43903	-6.219512	119	58	-139	0.09957885	-0.4500259	0.00717185	0.8874172
5	100	1555415325	-785.863	-119.499	670.207	25.2439	112.6829	-7.317073	122	58	-132	0.1003991	-0.4534135	0.008575701	0.8855861
5	100	1555415325	-792.024	-128.832	620.553	23.41463	138.6585	-8.902439	125	59	-125	0.1011099	-0.4573809	0.009796442	0.8834498
5	100	1555415325	-820.816	-107.238	549.854	8.536586	154.7561	-10.2439	130	60	-116	0.1015613	-0.4618976	0.01031526	0.8810388
5	100	1555415325	-830.881	-103.578	467.199	-13.17073	151.3415	-9.268293	135	59	-104	0.1008673	-0.4658345	0.009277627	0.8790551
5	100	1555415325	-842.166	-153.781	302.194	-42.92683	103.2927	-5.121951	139	60	-94	0.09956688	-0.4674215	0.006744591	0.8783838
5	100	1555415325	-860.344	-107.299	264.984	-172.1951	-117.8049	18.78049	142	62	-86	0.0940626	-0.459273	-0.002563555	0.8832972
5	100	1555415325	-843.325	-159.332	482.51	-38.90244	-156.8293	11.34146	142	64	-92	0.09143352	-0.4440138	-0.005829035	0.8913236
5	100	1555415325	-911.279	-178.73	678.686	44.63415	-139.6342	-0.6097561	138	65	-105	0.09316964	-0.431959	-0.003509629	0.897061
5	100	1555415325	-800.991	-137.311	654.164	41.58537	-85.36585	-4.146341	133	63	-114	0.09576538	-0.4250008	0.0002746666	0.9001129
5	100	1555415325	-785.375	-130.967	642.452	37.19512	-29.87805	-6.585366	130	62	-118	0.0980847	-0.4238105	0.003357036	0.9004181
5	100	1555415325	-811.178	-136.335	629.459	26.70732	-6.463415	-5.731708	129	61	-122	0.09949142	-0.4252754	0.005249184	0.8995636
5	100	1555415325	-762.378	-120.353	706.99	-9.268293	-17.07317	1.463415	130	60	-123	0.09915777	-0.4267708	0.005218665	0.8988922
5	100	1555415325	-772.931	-131.76	755.607	-12.07317	-20.4878	0.9756098	128	61	-124	0.09822345	-0.4272591	0.003753777	0.8987701
5	100	1555415325	-797.026	-129.015	584.136	-4.02439	-1.341463	-0.7317073	127	59	-125	0.09795943	-0.4285409	0.003295999	0.8981903
5	100	1555415325	-805.322	-139.019	499.712	-7.317073	8.780488	-0.3658537	127	60	-125	0.09765869	-0.4305246	0.003082369	0.8972747
5	100	1555415325	-804.712	-132.187	600.423	-4.390244	-3.536585	-0.2439024	128	62	-127	0.09745799	-0.4317148	0.002807703	0.8967254
5	100	1555415325	-801.662	-130.235	579.927	-0.6097561	-5.121951	-0.3658537	127	62	-125	0.09738059	-0.4321116	0.002929777	0.8965423
5	100	1555415325	-797.453	-128.832	625.982	-3.170732	-1.341463	0.2439024	127	61	-125	0.09745891	-0.4325999	0.002960295	0.8962981
5	100	1555415325	-795.928	-137.006	650.809	-4.390244	-0.8536586	0.3658537	126	62	-125	0.09740171	-0.4331187	0.002899258	0.896054
5	100	1555415325	-816.424	-136.457	589.138	-5.97561	0.1219512	0.6097561	126	63	-127	0.09718852	-0.4335459	0.002777184	0.8958709
5	100	1555415325	-815.082	-119.011	611.708	-3.902439	-1.219512	1.219512	128	62	-125	0.0970974	-0.4338816	0.002746666	0.8957183
5	100	1555415325	-810.873	-123.647	596.519	-3.04878	-2.560976	1.707317	125	61	-126	0.09697701	-0.4340342	0.002807703	0.8956572
5	100	1555415325	-816.363	-125.233	599.508	-2.073171	-3.902439	1.829268	126	60	-127	0.0971109	-0.4340037	0.002899258	0.8956572
5	100	1555415325	-792.268	-131.211	606.218	-0.9756098	-3.414634	2.317073	126	61	-128	0.09696072	-0.4339732	0.003051851	0.8956878
5	100	1555415325	-786.961	-144.204	602.131	-1.829268	-3.292683	2.073171	125	62	-127	0.09682015	-0.4340037	0.003173925	0.8956878
5	100	1555415325	-783.057	-143.96	627.629	-0.8536586	-0.8536586	2.195122	125	60	-128	0.09697762	-0.4341563	0.003326518	0.8955962
5	100	1555415325	-780.434	-136.64	615.429	-0.7317073	0.2439024	2.073171	126	61	-128	0.09699852	-0.4343394	0.00347911	0.8955046
5	100	1555415325	-785.131	-136.457	638.853	-0.1219512	0.6097561	1.585366	126	60	-128	0.0970191	-0.4345225	0.003601184	0.895413
5	100	1555415325	-771.101	-132.248	616.893	-0.7317073	0.3658537	1.463415	127	58	-126	0.097032	-0.4346446	0.00369274	0.895352
5	100	1555415325	-784.887	-130.418	621.59	-3.170732	-0.6097561	1.219512	128	61	-127	0.09704244	-0.4347056	0.003631703	0.8953215
5	100	1555415325	-792.146	-123.769	645.746	-4.390244	-1.341463	1.097561	125	59	-127	0.0970492	-0.4347056	0.003448592	0.8953215
5	100	1555415325	-815.875	-121.329	628.178	-3.170732	-1.95122	0.6097561	126	59	-129	0.09677243	-0.4347056	0.003295999	0.895352
5	100	1555415325	-828.746	-113.643	634.4	-2.439024	-3.04878	0.8536586	125	60	-129	0.096902	-0.4346141	0.003265481	0.8953825
5	100	1555415325	-826.672	-115.229	628.91	-1.341463	-4.146341	1.219512	125	59	-131	0.09682446	-0.4388256	0.002166814	0.8933378
5	100	1555415325	-834.541	-121.817	604.388	-1.341463	-4.268293	1.463415	124	61	-129	0.09667907	-0.445143	0.0006714072	0.8902249
5	100	1555415325	-813.008	-127.124	616.039	-0.8536586	-4.390244	2.317073	126	60	-129	0.09672253	-0.4488357	-0.001373333	0.8883633
5	100	1555415325	-785.619	-129.198	611.403	-0.4878049	-4.268293	2.439024	124	58	-129	0.09673762	-0.4500259	-0.003631703	0.887753
5	100	1555415325	-777.933	-128.588	614.514	0.6097561	-1.707317	2.682927	124	61	-130	0.0969063	-0.4499649	-0.005951109	0.887753
5	100	1555415325	-761.036	-125.05	646.539	1.463415	0.3658537	2.195122	125	58	-129	0.09688231	-0.4481948	-0.007599109	0.888638
5	100	1555415325	-756.705	-126.209	632.021	1.097561	2.195122	2.073171	124	59	-130	0.09710139	-0.4472793	-0.008697775	0.8890652
5	100	1555415325	-773.907	-122.793	638.548	0.6097561	2.926829	1.219512	125	59	-130	0.09722071	-0.4468825	-0.009033479	0.8892483
5	100	1555415325	-778.97	-117.364	624.457	-0.2439024	1.707317	1.585366	125	57	-130	0.09723175	-0.4468825	-0.008911405	0.8892483
5	100	1555415325	-795.318	-116.51	603.412	-1.341463	0.6097561	1.707317	125	57	-130	0.09711428	-0.4491714	-0.007629627	0.8881192
5	100	1555415325	-802.272	-113.643	613.172	-0.9756098	-1.585366	2.073171	123	57	-132	0.09669325	-0.4505447	-0.006500443	0.8874782
5	100	1555415325	-798.368	-108.397	605.608	-2.317073	-3.780488	2.682927	124	58	-132	0.09643709	-0.4528947	-0.005066073	0.8863186
5	100	1555415325	-809.409	-109.251	606.706	-1.95122	-4.146341	2.926829	124	57	-130	0.09597677	-0.4549089	-0.003997925	0.8853419
5	100	1555415325	-797.758	-117.608	596.58	0	-4.02439	3.414634	124	57	-131	0.0955342	-0.4571368	-0.003601184	0.8842433
5	100	1555415325	-799.405	-120.841	598.044	0.3658537	-3.658537	3.04878	123	57	-132	0.09546991	-0.459151	-0.00369274	0.8832057
5	100	1555415325	-787.266	-122.244	616.893	0.4878049	-2.682927	3.04878	122	58	-131	0.09561651	-0.4581744	-0.004333628	0.8836939
5	100	1555415325	-779.458	-116.815	628.361	1.097561	-2.804878	2.317073	123	57	-132	0.09567385	-0.4557329	-0.005096591	0.8849452
5	100	1555415325	-777.018	-118.767	628.605	2.073171	-3.902439	1.707317	123	57	-132	0.09599416	-0.4540544	-0.005706961	0.8857692
5	100	1555415325	-771.284	-116.266	602.802	3.04878	-5	1.219512	123	57	-133	0.09603823	-0.4522538	-0.005767998	0.8866848
5	100	1555415325	-775.127	-112.362	610.488	3.536585	-4.512195	0.7317073	122	55	-135	0.09650197	-0.4501785	-0.005462813	0.8876919
5	100	1555415325	-768.905	-100.833	638.121	3.780488	-5.365854	0.3658537	122	56	-132	0.09650999	-0.448439	-0.004394665	0.8885769
5	100	1555415325	-767.746	-106.018	621.895	3.414634	-4.878049	0.6097561	122	55	-133	0.09673023	-0.4475539	-0.003204443	0.8890042
5	100	1555415325	-771.65	-110.288	633.546	3.780488	-5.365854	0.9756098	123	55	-135	0.09706578	-0.4461501	-0.002380444	0.8896756
5	100	1555415325	-767.868	-112.118	637.45	4.634147	-6.463415	1.219512	120	54	-135	0.09735733	-0.4444411	-0.00204474	0.8904996
5	100	1555415325	-773.968	-107.787	645.868	4.756098	-8.902439	1.829268	122	56	-136	0.09749407	-0.4436781	-0.001678518	0.8908658
5	100	1555415325	-775.066	-110.776	626.47	6.341464	-9.390244	1.829268	119	53	-135	0.09762847	-0.4433424	-0.001556444	0.8910184
5	100	1555415325	-780.251	-112.728	622.139	7.317073	-9.878049	2.073171	120	55	-135	0.09774654	-0.4423353	-0.001007111	0.8915067
5	100	1555415325	-772.992	-117.791	641.171	7.560976	-8.780488	1.95122	119	55	-136	0.09826016	-0.4413587	-0.001098666	0.891934
5	100	1555415325	-774.151	-111.813	655.384	8.04878	-6.707317	1.707317	120	53	-136	0.09861679	-0.4402905	-0.00122074	0.8924223
5	100	1555415325	-778.36	-109.556	675.697	9.146341	-6.95122	1.707317	118	51	-135	0.09903567	-0.4383984	-0.0009460738	0.8933073
5	100	1555415325	-777.018	-121.146	656.787	11.34146	-7.439024	1.585366	118	52	-136	0.09953725	-0.4379101	-0.00143437	0.8934904
5	100	1555415325	-779.58	-109.373	654.286	12.43902	-8.780488	2.073171	117	52	-136	0.09989857	-0.4373302	-0.001037629	0.8937346
5	100	1555415325	-780.617	-106.262	657.214	13.41463	-10.2439	2.073171	117	51	-137	0.1004365	-0.4372082	-0.0002441481	0.8937346
5	100	1555415325	-767.807	-97.478	654.103	15.2439	-9.878049	2.439024	116	50	-146	0.1007156	-0.4360179	0.001037629	0.8942839
5	100	1555415325	-765.062	-93.513	663.009	15.73171	-9.02439	2.804878	117	49	-137	0.101361	-0.4339122	0.003082369	0.8952299
5	100	1555415325	-755.607	-84.912	652.822	12.92683	-7.560976	3.170732	115	49	-138	0.1017736	-0.431959	0.005615406	0.896115
5	100	1555415325	-759.999	-83.265	683.566	11.09756	-6.463415	2.682927	116	48	-138	0.1021238	-0.430311	0.008239998	0.8968474
5	100	1555415325	-761.463	-84.668	685.396	9.756098	-6.463415	2.439024	115	48	-136	0.1025167	-0.4290902	0.01028474	0.8973662
5	100	1555415325	-772.687	-70.272	663.009	7.317073	-5.609756	2.195122	115	47	-137	0.1026628	-0.4279	0.01281777	0.8978851
5	100	1555415325	-774.761	-67.527	660.874	6.585366	-4.512195	2.560976	114	47	-138	0.1026059	-0.4269845	0.01568651	0.8982818
5	100	1555415325	-760.426	-72.773	648.613	6.95122	-3.780488	2.682927	115	47	-138	0.1028658	-0.4268014	0.0171514	0.8983123
5	100	1555415325	-775.92	-73.444	656.482	6.585366	-4.390244	2.804878	114	45	-137	0.1029368	-0.4277779	0.01794488	0.897824
5	100	1555415325	-780.739	-77.165	659.715	5.609756	-4.878049	2.804878	114	45	-138	0.102977	-0.429426	0.01803644	0.8970305
5	100	1555415325	-776.53	-80.215	656.604	6.463415	-3.902439	2.682927	113	44	-138	0.1029226	-0.4307688	0.01818903	0.8963897
5	100	1555415325	-775.92	-75.884	664.961	6.463415	-5	3.292683	112	44	-138	0.1030777	-0.4317148	0.01892148	0.8959014
5	100	1555415325	-793.61	-74.603	657.336	6.829268	-7.317073	3.414634	113	43	-138	0.102977	-0.4326914	0.02023377	0.895413
5	100	1555415325	-798.185	-68.991	657.946	6.829268	-8.04878	3.658537	113	44	-141	0.1030143	-0.4334544	0.02124088	0.8950163
5	100	1555415325	-761.463	-71.37	628.178	6.585366	-7.195122	3.170732	112	45	-141	0.1031066	-0.4334849	0.02145451	0.8949858
5	100	1555415325	-778.36	-68.808	636.718	4.390244	-5.853659	3.414634	111	43	-141	0.1030756	-0.4351634	0.02197333	0.8941618
5	100	1555415325	-762.134	-60.207	669.109	6.463415	-5.243903	3.536585	112	42	-138	0.1031938	-0.434431	0.02224799	0.8944975
5	100	1555415325	-761.219	-69.967	675.087	8.902439	-4.268293	3.902439	111	41	-140	0.1035018	-0.4334239	0.0232551	0.8949248
5	100	1555415325	-759.633	-81.74	675.209	9.02439	-4.146341	4.02439	111	42	-142	0.1035772	-0.432783	0.02426222	0.8951994
5	100	1555415325	-757.864	-89.365	686.067	8.780488	-5.365854	3.414634	109	40	-141	0.1037819	-0.4321726	0.02523881	0.8954436
5	100	1555415325	-765.55	-84.058	664.839	7.195122	-5.365854	2.804878	109	39	-139	0.1039856	-0.4315012	0.02612384	0.8957183
5	100	1555415325	-755.79	-82.472	647.21	6.707317	-4.02439	2.804878	109	40	-138	0.1042209	-0.4309519	0.02691733	0.8959319
5	100	1555415325	-759.816	-74.847	644.343	5.97561	-2.439024	2.317073	111	39	-140	0.1042209	-0.4305246	0.02764977	0.896115
5	100	1555415325	-744.81	-81.313	665.571	4.02439	-3.780488	1.95122	108	37	-140	0.1043803	-0.4300668	0.02822962	0.8962981
5	100	1555415325	-755.79	-53.985	662.704	1.829268	-2.682927	1.707317	109	37	-140	0.104527	-0.4292428	0.02859584	0.8966643
5	100	1555415325	-748.653	-52.338	655.262	-1.219512	-2.682927	1.585366	108	39	-140	0.104564	-0.4289376	0.02920621	0.8967864
5	100	1555415325	-749.873	-57.767	659.654	-2.804878	-2.560976	1.463415	106	38	-140	0.1044468	-0.4273507	0.02945036	0.8975494
5	100	1555415325	-753.167	-59.902	657.946	-2.926829	-0.7317073	1.097561	110	36	-142	0.1044289	-0.4273202	0.0290231	0.8975799
5	100	1555415326	-756.156	-55.571	658.678	-2.560976	0.1219512	0.7317073	108	36	-142	0.1043338	-0.4270455	0.0286874	0.8977325
5	100	1555415326	-764.574	-61.305	642.33	-2.439024	0.6097561	0.8536586	108	36	-142	0.10438	-0.4272591	0.0281991	0.8976409
5	100	1555415326	-761.707	-61.366	658.007	-2.439024	0.7317073	1.097561	107	36	-141	0.1043857	-0.4272897	0.02771081	0.8976409
5	100	1555415326	-764.025	-66.612	650.626	-3.536585	-0.1219512	1.463415	107	35	-142	0.1041849	-0.4279	0.02694784	0.8973967
5	100	1555415326	-772.321	-70.882	668.255	-4.268293	-0.6097561	1.585366	107	37	-143	0.1041631	-0.4292123	0.02542192	0.8968169
5	100	1555415326	-770.369	-69.601	666.547	-4.512195	-0.2439024	1.585366	107	38	-143	0.1038648	-0.4302805	0.02471999	0.8963591
5	100	1555415326	-767.746	-67.954	637.816	-4.146341	0.8536586	1.585366	108	36	-143	0.1036943	-0.4311045	0.02435377	0.8959929
5	100	1555415326	-760.548	-60.756	669.475	-2.804878	0.1219512	1.829268	106	38	-142	0.103551	-0.4301279	0.02426222	0.8964812
5	100	1555415326	-757.315	-61.488	667.523	-2.195122	0.3658537	1.829268	107	37	-143	0.1036644	-0.4292123	0.02420118	0.8969085
5	100	1555415326	-749.69	-64.233	667.035	-1.95122	-0.7317073	1.341463	108	36	-143	0.1037106	-0.4278695	0.02401807	0.8975494
5	100	1555415326	-749.69	-62.037	636.413	-2.439024	-0.7317073	1.707317	107	36	-144	0.1035294	-0.4268929	0.02392651	0.8980377
5	100	1555415326	-759.145	-71.431	691.801	-2.439024	0.2439024	0.9756098	108	37	-143	0.1037089	-0.4260079	0.02285836	0.8984649
5	100	1555415326	-758.474	-78.873	690.52	-2.682927	1.463415	0.6097561	106	37	-144	0.1037336	-0.4254891	0.02157659	0.8987396
5	100	1555415326	-776.713	-78.263	672.22	-2.926829	2.317073	-0.1219512	106	36	-145	0.1038651	-0.4254891	0.0209357	0.8987396
5	100	1555415326	-775.249	-63.562	670.146	-2.317073	4.02439	-0.3658537	108	37	-143	0.1038714	-0.4261299	0.02096622	0.8984344
5	100	1555415326	-767.075	-72.651	661.179	-2.073171	5.487805	-1.219512	107	37	-144	0.1038686	-0.4263131	0.02117985	0.8983428
5	100	1555415326	-766.831	-61.793	660.935	-2.195122	4.878049	-1.219512	108	35	-142	0.1040612	-0.4251228	0.02212592	0.8988616
5	100	1555415326	-753.045	-54.717	713.029	-3.170732	3.902439	-1.219512	107	37	-141	0.1040933	-0.4232612	0.0229194	0.8997162
5	100	1555415326	-754.936	-58.56	687.897	-4.146341	2.439024	-1.341463	107	37	-142	0.1043372	-0.4223762	0.0237434	0.9000824
5	100	1555415326	-759.633	-55.083	701.927	-4.634147	0.4878049	-1.219512	108	38	-143	0.1043957	-0.4208808	0.0245674	0.9007538
5	100	1555415326	-749.629	-59.048	691.557	-4.390244	-0.3658537	-1.097561	108	38	-141	0.1044622	-0.4189886	0.02526933	0.9016083
5	100	1555415326	-754.448	-59.353	689.788	-4.878049	0.2439024	-1.097561	108	36	-143	0.1043075	-0.4184698	0.02578814	0.9018525
5	100	1555415326	-744.261	-50.081	658.8	-5.121951	1.829268	-1.341463	106	36	-144	0.1043906	-0.4188055	0.02639851	0.9016694
5	100	1555415326	-758.474	-49.471	657.092	-5.243903	3.292683	-1.341463	107	36	-143	0.1044982	-0.419599	0.02691733	0.9012726
5	100	1555415326	-743.346	-51.118	672.586	-5.853659	4.756098	-1.585366	108	37	-143	0.1044614	-0.4199042	0.02740562	0.90112
5	100	1555415326	-748.592	-54.229	663.314	-5.97561	5.853659	-1.463415	108	37	-142	0.1043232	-0.4207587	0.0278634	0.9007233
5	100	1555415326	-764.269	-54.656	679.113	-6.219512	6.829268	-1.463415	109	39	-141	0.1044443	-0.4214606	0.02764977	0.9003876
5	100	1555415326	-767.319	-62.586	678.625	-5.97561	5.853659	-1.585366	109	39	-142	0.1043324	-0.4229865	0.02761925	0.8996857
5	100	1555415326	-773.785	-58.56	663.558	-5.487805	5	-1.341463	109	38	-141	0.1041213	-0.4241462	0.0275277	0.8991668
5	100	1555415326	-765.428	-59.231	660.264	-5.365854	5.121951	-1.341463	109	37	-141	0.1041582	-0.4250008	0.02716147	0.8987701
5	100	1555415326	-766.831	-58.804	651.785	-5.243903	4.146341	-1.341463	109	38	-142	0.1043535	-0.4265877	0.02676473	0.8980072
5	100	1555415326	-758.535	-54.29	657.031	-5.487805	3.658537	-0.6097561	110	39	-141	0.1039615	-0.4272591	0.02679525	0.8977325
5	100	1555415326	-738.771	-61.488	658.495	-5	2.926829	-0.8536586	110	40	-142	0.1042966	-0.4268624	0.0267037	0.8978851
5	100	1555415326	-758.047	-67.222	672.098	-4.878049	2.439024	-0.6097561	109	40	-141	0.1041273	-0.427015	0.02594073	0.8978546
5	100	1555415326	-745.115	-64.416	672.525	-4.756098	2.073171	-0.8536586	108	40	-142	0.1043049	-0.4256417	0.02560503	0.8984954
5	100	1555415326	-749.141	-60.878	673.318	-4.390244	1.585366	-0.7317073	110	40	-141	0.1041711	-0.425306	0.02529985	0.8986785
5	100	1555415326	-742.248	-62.708	664.839	-3.902439	-0.1219512	-0.4878049	109	40	-139	0.1043324	-0.42378	0.02529985	0.8993804
5	100	1555415326	-746.701	-55.144	672.281	-3.902439	-1.097561	-0.4878049	110	41	-143	0.1045843	-0.4223456	0.02545244	0.9000214
5	100	1555415326	-748.287	-59.17	675.453	-4.02439	-1.219512	-0.1219512	109	40	-142	0.1043906	-0.4217353	0.02557451	0.9003266
5	100	1555415326	-758.901	-62.342	683.261	-4.02439	-1.097561	-0.3658537	109	40	-141	0.1043815	-0.4214301	0.02526933	0.9004791
5	100	1555415326	-751.886	-62.22	686.128	-3.902439	-1.707317	0.1219512	109	39	-142	0.1046068	-0.4208502	0.02529985	0.9007233
5	100	1555415326	-761.524	-66.124	676.368	-4.756098	-1.219512	0.1219512	110	41	-143	0.1043917	-0.421308	0.02508621	0.9005402
5	100	1555415326	-759.999	-63.928	682.895	-4.634147	0.1219512	0.2439024	109	39	-143	0.1043412	-0.4213385	0.02478103	0.9005402
5	100	1555415326	-746.701	-62.586	671.61	-4.634147	1.341463	0.2439024	108	39	-141	0.1044069	-0.4208197	0.02444533	0.9007843
5	100	1555415326	-756.644	-61	683.261	-4.02439	1.829268	0	110	41	-144	0.1043158	-0.4199652	0.02377392	0.9012116
5	100	1555415326	-757.742	-73.749	675.88	-3.536585	1.707317	0.1219512	110	40	-143	0.10441	-0.4194159	0.02261422	0.9014863
5	100	1555415326	-756.156	-70.272	703.574	-2.682927	2.195122	-0.2439024	108	41	-142	0.1045549	-0.4186834	0.02212592	0.901822
5	100	1555415326	-755.424	-72.102	698.633	-2.804878	1.585366	0	109	42	-143	0.1045315	-0.4190497	0.02151555	0.9016694
5	100	1555415326	-762.744	-73.81	664.778	-2.560976	1.341463	-0.2439024	108	40	-141	0.1043758	-0.4201483	0.02130192	0.901181
5	100	1555415326	-765.306	-68.32	679.967	-2.439024	1.341463	0	109	40	-143	0.1044768	-0.4204535	0.02124088	0.9010285
5	100	1555415326	-760.487	-67.588	675.575	-2.560976	1.219512	0.2439024	110	42	-142	0.1043666	-0.4211249	0.02142399	0.9007233
5	100	1555415326	-753.96	-62.769	677.1	-3.170732	2.195122	-0.1219512	108	42	-143	0.1044799	-0.4212165	0.02163762	0.9006622
5	100	1555415326	-747.25	-72.773	680.699	-3.04878	3.292683	-0.1219512	110	41	-143	0.1045124	-0.4208197	0.02157659	0.9008453
5	100	1555415326	-754.143	-71.004	681.614	-2.804878	3.04878	-0.1219512	109	40	-144	0.1045313	-0.4208197	0.02148503	0.9008453
5	100	1555415326	-748.714	-72.651	680.516	-2.804878	3.658537	-0.1219512	109	41	-143	0.1045646	-0.4203009	0.02124088	0.9010895
5	100	1555415326	-760.731	-65.453	696.01	-3.04878	2.439024	0.1219512	110	40	-143	0.1046891	-0.4200873	0.02096622	0.901181
5	100	1555415326	-748.409	-73.749	649.345	-2.560976	2.317073	-0.1219512	110	42	-141	0.1046031	-0.4206366	0.02087466	0.9009369
5	100	1555415326	-746.457	-71.797	656.36	-2.073171	3.170732	-0.2439024	108	41	-143	0.1048279	-0.4205451	0.02026429	0.9009674
5	100	1555415326	-734.806	-69.235	677.893	-2.195122	4.634147	-0.2439024	108	41	-142	0.1049563	-0.4203314	0.01995911	0.901059
5	100	1555415326	-751.764	-73.932	645.99	-3.902439	4.390244	0	109	40	-140	0.1046794	-0.4236274	0.01916562	0.8995636
5	100	1555415326	-753.899	-74.359	667.401	-1.463415	4.878049	-0.2439024	110	41	-142	0.1045934	-0.4250618	0.01937925	0.8988922
5	100	1555415326	-757.071	-71.065	681.614	-0.7317073	2.926829	0.3658537	109	41	-141	0.104862	-0.4238105	0.01983703	0.8994415
5	100	1555415326	-765.428	-70.333	698.999	-0.6097561	1.707317	0.3658537	112	41	-142	0.1049617	-0.4229255	0.02020325	0.8998383
5	100	1555415326	-754.631	-76.128	641.11	0	1.707317	0.2439024	110	41	-141	0.1049575	-0.4232612	0.01998962	0.8996857
5	100	1555415326	-758.352	-76.494	613.599	-1.585366	2.926829	0.2439024	109	40	-141	0.1049399	-0.4270455	0.01916562	0.8979156
5	100	1555415326	-754.448	-77.775	643.855	-1.585366	3.414634	0.3658537	108	40	-142	0.1047562	-0.4301889	0.01843318	0.8964507
5	100	1555415326	-761.036	-78.324	656.604	-1.95122	3.658537	0.2439024	110	40	-140	0.1050863	-0.431135	0.01818903	0.8959624
5	100	1555415326	-752.923	-68.93	669.78	-3.536585	4.512195	0.4878049	110	40	-141	0.1048927	-0.4307077	0.01889096	0.896176
5	100	1555415326	-763.72	-75.579	653.005	-5	4.634147	0.2439024	109	40	-142	0.1047875	-0.4308603	0.01889096	0.896115
5	100	1555415326	-765.245	-72.529	669.414	-5.365854	4.146341	0.1219512	110	40	-140	0.1046227	-0.4305246	0.01876888	0.8962981
5	100	1555415326	-759.755	-80.215	669.841	-5.121951	3.170732	0.1219512	108	41	-140	0.104594	-0.4299142	0.01834163	0.8966033
5	100	1555415326	-767.563	-71.309	663.07	-4.02439	3.04878	0.3658537	110	42	-141	0.1047673	-0.4300058	0.01818903	0.8965423
5	100	1555415326	-764.574	-75.152	668.621	-3.536585	2.926829	0.1219512	109	41	-142	0.1046489	-0.4296396	0.01849422	0.8967254
5	100	1555415326	-763.171	-79.178	661.362	-3.170732	2.439024	0.3658537	110	40	-140	0.104594	-0.4298532	0.01828059	0.8966338
5	100	1555415326	-763.72	-76.738	657.58	-3.292683	2.439024	0.8536586	111	41	-141	0.1044534	-0.4305246	0.01825007	0.8963286
5	100	1555415326	-762.988	-77.592	655.567	-3.04878	1.585366	0.4878049	110	41	-140	0.1042741	-0.4308298	0.01806696	0.8962066
5	100	1555415326	-765.489	-73.078	659.105	-2.926829	1.585366	0.8536586	111	40	-143	0.1044591	-0.4312266	0.01812799	0.8959929
5	100	1555415326	-765.489	-76.555	655.506	-2.439024	1.707317	0.8536586	109	41	-138	0.10441	-0.4308603	0.01806696	0.896176
5	100	1555415326	-769.637	-76.86	662.948	-1.829268	1.219512	0.7317073	110	40	-141	0.1043595	-0.4305551	0.01806696	0.8963286
5	100	1555415326	-762.5	-71.98	662.46	-1.585366	0.7317073	0.7317073	110	41	-141	0.1041897	-0.4298837	0.01837214	0.8966643
5	100	1555415326	-765.672	-76.189	660.63	-1.341463	0.9756098	0.6097561	109	40	-141	0.1042615	-0.4296701	0.01849422	0.8967559
5	100	1555415326	-769.515	-72.773	670.573	-1.463415	0.7317073	0.7317073	110	40	-140	0.1042506	-0.4297922	0.01867733	0.8966948
5	100	1555415326	-766.16	-76.372	656.36	-2.195122	0.4878049	0.7317073	110	40	-141	0.1041628	-0.4296701	0.01904355	0.8967559
5	100	1555415326	-771.589	-75.945	662.948	-2.317073	0.3658537	0.8536586	108	39	-140	0.1043063	-0.4301889	0.01947081	0.8964812
5	100	1555415326	-766.648	-72.407	669.719	-2.926829	0.6097561	0.6097561	112	41	-139	0.1042929	-0.4298837	0.01925718	0.8966338
5	100	1555415326	-770.125	-74.786	661.24	-3.04878	-0.1219512	0.6097561	110	40	-140	0.1042621	-0.4304636	0.01925718	0.8963591
5	100	1555415326	-767.746	-69.967	656.421	-2.073171	0.7317073	0.7317073	111	41	-140	0.104054	-0.431135	0.01956237	0.896054
5	100	1555415326	-762.988	-70.211	658.8	-1.707317	0.2439024	0.4878049	110	39	-141	0.1041374	-0.4306467	0.02008118	0.8962676
5	100	1555415326	-761.768	-69.113	684.969	-2.195122	0.1219512	0.6097561	110	40	-140	0.104097	-0.429426	0.02053896	0.8968474
5	100	1555415326	-755.302	-66.246	693.997	-2.560976	-0.2439024	0.9756098	108	41	-140	0.1040483	-0.4283883	0.02111881	0.8973357
5	100	1555415326	-757.315	-73.993	677.649	-2.560976	-0.4878049	0.8536586	108	40	-142	0.1040008	-0.4271981	0.02081362	0.8979156
5	100	1555415326	-758.535	-70.516	701.439	-2.439024	-0.7317073	0.9756098	109	39	-143	0.1041488	-0.426191	0.02096622	0.8983734
5	100	1555415326	-762.439	-71.614	668.926	-2.439024	-0.1219512	0.7317073	108	39	-143	0.1042146	-0.4253975	0.02105777	0.8987396
5	100	1555415326	-758.169	-70.333	664.717	-2.439024	0.2439024	0.8536586	110	40	-141	0.1041173	-0.4248482	0.02090518	0.8990142
5	100	1555415326	-763.049	-66.49	677.039	-2.682927	0.3658537	0.3658537	110	41	-142	0.1039348	-0.4250008	0.02133244	0.8989532
5	100	1555415326	-758.535	-63.562	658.068	-3.170732	0.1219512	0.4878049	110	40	-141	0.1040875	-0.4248787	0.02172918	0.8989837
5	100	1555415326	-764.818	-66.795	689.117	-2.804878	0.7317073	0.4878049	109	41	-143	0.1039403	-0.4250313	0.02197333	0.8989227
5	100	1555415326	-755.546	-61.61	694.241	-2.682927	0.7317073	0.6097561	109	41	-143	0.1038292	-0.4250313	0.02249214	0.8989227
5	100	1555415327	-766.526	-66.429	678.503	-2.560976	0.3658537	0.3658537	110	39	-142	0.103874	-0.4250008	0.02285836	0.8989227
5	100	1555415327	-765.123	-65.087	673.074	-2.439024	0.2439024	0.3658537	109	40	-142	0.1037086	-0.4250313	0.02304148	0.8989227
5	100	1555415327	-756.278	-67.771	658.556	-2.682927	0.2439024	0.7317073	110	41	-142	0.1038126	-0.4249397	0.02307199	0.8989532
5	100	1555415327	-758.84	-64.538	666.791	-2.317073	0.1219512	0.3658537	110	39	-143	0.1038284	-0.42378	0.0229194	0.8995026
5	100	1555415327	-752.313	-62.647	698.877	-2.195122	0.3658537	0.4878049	109	39	-141	0.103866	-0.4230476	0.02310251	0.8998383
5	100	1555415327	-753.655	-70.882	685.64	-2.073171	0.7317073	0.1219512	109	41	-142	0.1038815	-0.4229255	0.02288888	0.8998993
5	100	1555415327	-762.744	-68.442	686.372	-2.439024	0.6097561	0.4878049	109	39	-141	0.1040019	-0.4226508	0.02261422	0.9000214
5	100	1555415327	-753.96	-64.538	676.673	-2.195122	0.8536586	0.3658537	109	40	-144	0.1039896	-0.422132	0.02264473	0.9002655
5	100	1555415327	-759.084	-68.076	697.962	-2.439024	1.463415	0.2439024	111	40	-144	0.1039993	-0.4219489	0.02237007	0.9003571
5	100	1555415327	-747.128	-69.479	663.375	-2.439024	1.707317	0.3658537	107	40	-142	0.1038909	-0.4217963	0.02206488	0.9004486
5	100	1555415327	-756.705	-67.893	669.536	-2.560976	1.463415	0.1219512	109	38	-143	0.1040237	-0.4217048	0.02194281	0.9004791
5	100	1555415327	-750.544	-65.758	679.174	-2.317073	1.463415	0.2439024	109	39	-143	0.1040412	-0.4214301	0.02212592	0.9006012
5	100	1555415327	-755.607	-66.124	683.993	-2.317073	1.585366	0.2439024	109	40	-142	0.1040331	-0.4216132	0.02240059	0.9005097
5	100	1555415327	-763.354	-64.721	702.354	-2.317073	1.585366	0.1219512	108	40	-143	0.1042309	-0.4216132	0.02270577	0.9004791
5	100	1555415327	-760.67	-68.564	683.81	-2.317073	1.829268	0.1219512	108	39	-142	0.10405	-0.4220405	0.02285836	0.900296
5	100	1555415327	-768.905	-68.198	681.492	-2.317073	1.829268	0.3658537	110	41	-143	0.1039294	-0.422132	0.0229194	0.9002655
5	100	1555415327	-759.938	-64.477	676.49	-2.317073	1.707317	0.2439024	109	40	-144	0.1041368	-0.4214911	0.02298044	0.9005402
5	100	1555415327	-761.402	-69.418	670.817	-2.439024	1.707317	0.2439024	109	39	-144	0.1041422	-0.4222846	0.02273629	0.900174
5	100	1555415327	-755.18	-66.734	676.185	-2.195122	1.585366	0.1219512	108	41	-140	0.104087	-0.4224983	0.02264473	0.9000824
5	100	1555415327	-748.653	-67.71	679.845	-2.317073	1.097561	0.1219512	109	39	-141	0.1040119	-0.4223151	0.02276681	0.900174
5	100	1555415327	-761.341	-69.967	687.287	-2.317073	1.463415	0	108	39	-142	0.1040188	-0.4225898	0.02246162	0.9000519
5	100	1555415327	-757.498	-68.747	678.503	-2.317073	1.097561	0.4878049	108	40	-143	0.1041042	-0.4224372	0.02249214	0.9001129
5	100	1555415327	-762.439	-64.538	677.649	-2.317073	1.585366	0.7317073	110	42	-140	0.1041854	-0.4222236	0.02246162	0.9002045
5	100	1555415327	-761.097	-65.636	676.368	-2.682927	1.585366	0.2439024	109	39	-144	0.1042083	-0.4222846	0.02243111	0.900174
5	100	1555415327	-763.11	-62.525	672.83	-2.926829	1.219512	0.1219512	108	40	-145	0.1042403	-0.4225288	0.0225837	0.9000519
5	100	1555415327	-753.472	-66.063	677.71	-3.04878	1.707317	0.2439024	109	39	-142	0.1041505	-0.4224677	0.0229194	0.9000824
5	100	1555415327	-753.838	-65.758	672.403	-3.170732	2.317073	0.3658537	109	42	-143	0.1039796	-0.4224983	0.02313303	0.9000824
5	100	1555415327	-762.195	-69.174	679.357	-2.926829	2.195122	-0.1219512	108	41	-144	0.1041505	-0.423719	0.0225837	0.8995026
5	100	1555415327	-758.657	-71.248	675.697	-2.926829	1.95122	0.1219512	108	39	-143	0.1040263	-0.4244209	0.02212592	0.8991973
5	100	1555415327	-763.11	-69.296	677.344	-3.04878	1.219512	0.2439024	108	39	-140	0.104198	-0.4244514	0.02197333	0.8991668
5	100	1555415327	-761.097	-68.442	677.283	-2.804878	1.463415	0.2439024	109	41	-142	0.1040131	-0.4245125	0.02166814	0.8991668
5	100	1555415327	-754.509	-68.381	649.528	-2.439024	1.341463	0.2439024	107	41	-143	0.1041637	-0.4247261	0.02182074	0.8990448
5	100	1555415327	-758.108	-66.002	670.085	-2.439024	1.097561	0	109	39	-140	0.1041434	-0.4250618	0.02166814	0.8988922
5	100	1555415327	-754.875	-66.307	672.281	-2.560976	1.463415	0.1219512	109	40	-142	0.1041814	-0.4250618	0.02148503	0.8988922
5	100	1555415327	-759.023	-73.383	666.608	-2.560976	1.829268	0.2439024	108	39	-141	0.1040729	-0.4254891	0.02121036	0.8987091
5	100	1555415327	-756.522	-70.15	668.377	-2.926829	1.95122	0.1219512	109	40	-142	0.1040792	-0.4254891	0.02117985	0.8987091
5	100	1555415327	-759.694	-73.688	673.806	-3.04878	1.829268	0.1219512	108	39	-141	0.1041116	-0.4255501	0.02108829	0.8986785
5	100	1555415327	-762.988	-65.087	689.788	-3.04878	2.195122	0.2439024	109	39	-141	0.1041597	-0.4260384	0.02139348	0.8984344
5	100	1555415327	-759.328	-68.625	654.774	-2.682927	1.585366	0.1219512	108	40	-144	0.1040383	-0.4263131	0.02163762	0.8983123
5	100	1555415327	-761.28	-66.185	655.689	-2.804878	1.341463	0.1219512	108	40	-142	0.1041499	-0.4259468	0.02197333	0.8984649
5	100	1555415327	-759.45	-64.66	696.193	-2.195122	0.7317073	0.2439024	110	38	-142	0.1040165	-0.4252754	0.02188177	0.8988006
5	100	1555415327	-758.352	-73.566	673.318	-2.317073	1.219512	0	109	41	-141	0.1041568	-0.4255806	0.02154607	0.898648
5	100	1555415327	-756.888	-72.773	692.411	-1.463415	1.829268	0	108	40	-144	0.1041691	-0.424482	0.02151555	0.8991668
5	100	1555415327	-756.461	-76.372	645.014	-3.780488	2.439024	0.1219512	109	39	-141	0.1042054	-0.4255196	0.02124088	0.8986785
5	100	1555415327	-769.21	-64.66	634.888	-3.658537	1.585366	0.2439024	108	41	-143	0.1039821	-0.4290902	0.02145451	0.897
5	100	1555415327	-750.239	-62.952	652.944	-0.7317073	3.04878	0	109	40	-142	0.1039621	-0.4293954	0.02182074	0.8968474
5	100	1555415327	-761.646	-54.046	682.651	-0.9756098	0.7317073	0.3658537	111	41	-142	0.1041353	-0.4274423	0.0229194	0.8977325
5	100	1555415327	-754.936	-61.488	695.339	-0.7317073	0.3658537	0.6097561	109	41	-141	0.1042469	-0.4254586	0.02343822	0.898648
5	100	1555415327	-755.058	-78.263	633.607	-1.097561	0.8536586	0.4878049	109	40	-143	0.1041445	-0.4265267	0.02319407	0.8981597
5	100	1555415327	-753.472	-73.749	664.351	-2.439024	1.219512	0.3658537	110	41	-143	0.1042443	-0.4290292	0.02264473	0.8969695
5	100	1555415327	-763.354	-74.054	661.728	-2.195122	2.682927	0.1219512	110	39	-142	0.1042929	-0.4293649	0.0220954	0.8968169
5	100	1555415327	-759.45	-64.904	665.876	-3.292683	2.926829	0.1219512	109	40	-143	0.1042123	-0.4284799	0.02230903	0.8972442
5	100	1555415327	-747.738	-65.88	667.096	-5.121951	3.536585	0.1219512	109	38	-142	0.1042343	-0.4275033	0.02252266	0.897702
5	100	1555415327	-758.962	-62.098	674.66	-5	2.195122	0.3658537	109	40	-141	0.1043443	-0.4265877	0.02233955	0.8981292
5	100	1555415327	-759.206	-70.15	663.802	-4.390244	1.219512	0.1219512	109	40	-143	0.1041591	-0.426191	0.02218696	0.8983428
5	100	1555415327	-761.036	-69.601	677.71	-4.02439	2.073171	0	109	41	-141	0.104087	-0.4263436	0.02206488	0.8982818
5	100	1555415327	-767.807	-68.015	685.03	-3.170732	2.560976	-0.2439024	110	41	-143	0.1041076	-0.4265877	0.02221747	0.8981597
5	100	1555415327	-764.452	-68.686	680.577	-2.926829	1.829268	0.2439024	110	40	-143	0.1041454	-0.4261299	0.02218696	0.8983734
5	100	1555415327	-766.16	-69.418	679.357	-2.682927	1.829268	0.2439024	109	41	-145	0.1040452	-0.4260384	0.02194281	0.8984344
5	100	1555415327	-754.753	-73.566	653.859	-2.682927	0.9756098	0.4878049	108	40	-144	0.1039896	-0.4260079	0.02154607	0.8984649
5	100	1555415327	-766.709	-71.553	663.192	-2.926829	1.097561	0.4878049	109	40	-142	0.1041099	-0.4257332	0.02130192	0.898587
5	100	1555415327	-748.531	-64.843	678.198	-2.560976	0.6097561	0.6097561	109	40	-141	0.1041322	-0.4253365	0.02139348	0.8987701
5	100	1555415327	-753.228	-67.283	677.1	-2.439024	0.3658537	0.7317073	109	39	-143	0.1041127	-0.4248787	0.0216071	0.8989837
5	100	1555415327	-760.914	-67.954	674.538	-2.317073	0.3658537	0.7317073	111	39	-142	0.1042598	-0.4243904	0.0216071	0.8991973
5	100	1555415327	-754.448	-72.346	676.185	-1.95122	0.2439024	0.4878049	110	40	-141	0.104212	-0.4236885	0.02163762	0.8995331
5	100	1555415327	-757.803	-66.246	679.174	-1.829268	0.1219512	0.6097561	108	40	-143	0.1040878	-0.423719	0.02163762	0.8995331
5	100	1555415327	-756.278	-68.808	668.865	-2.073171	0	0.3658537	111	38	-144	0.104038	-0.4235969	0.02172918	0.8995941
5	100	1555415327	-763.293	-67.161	664.046	-2.682927	-0.1219512	0.3658537	109	39	-144	0.1042469	-0.4236274	0.02139348	0.8995636
5	100	1555415327	-752.801	-73.871	677.344	-2.682927	-0.3658537	0.2439024	109	40	-144	0.1041282	-0.4239326	0.02105777	0.8994415
5	100	1555415327	-758.84	-75.335	682.163	-2.804878	0.1219512	0.3658537	109	41	-144	0.104182	-0.4235664	0.02032533	0.8996246
5	100	1555415327	-766.526	-69.418	685.64	-3.170732	-0.7317073	0.7317073	107	41	-143	0.1042935	-0.4232307	0.01998962	0.8997772
5	100	1555415327	-754.082	-70.089	666.059	-2.317073	0.9756098	0.4878049	111	40	-143	0.1040019	-0.4233528	0.02029481	0.8997467
5	100	1555415327	-760.914	-61.976	678.503	-1.95122	0.8536586	0.7317073	108	41	-142	0.1040331	-0.4236274	0.02114933	0.8995941
5	100	1555415327	-752.801	-60.024	667.767	-2.317073	1.219512	0.4878049	110	39	-143	0.1042635	-0.4228339	0.0216071	0.8999298
5	100	1555415327	-751.886	-68.564	665.51	-2.439024	1.463415	0.6097561	108	39	-143	0.1039947	-0.4219184	0.02172918	0.9003876
5	100	1555415327	-750.91	-60.268	680.577	-2.804878	0.4878049	0.3658537	110	41	-143	0.1041866	-0.4213385	0.02194281	0.9006317
5	100	1555415327	-750.056	-66.368	676.978	-2.804878	0.3658537	0.6097561	109	41	-144	0.1040792	-0.4209113	0.02188177	0.9008453
5	100	1555415327	-755.058	-61.732	681.004	-2.560976	1.585366	0.2439024	109	40	-144	0.1041617	-0.4207587	0.02191229	0.9009064
5	100	1555415327	-754.57	-66.063	671.488	-2.439024	1.341463	0.4878049	107	40	-141	0.103979	-0.4203925	0.02227851	0.9010895
5	100	1555415327	-756.949	-62.525	668.743	-2.926829	1.463415	0.2439024	109	40	-143	0.1040096	-0.4213385	0.02276681	0.9006317
5	100	1555415327	-751.52	-67.283	650.748	-2.560976	1.95122	0.3658537	109	41	-142	0.1039133	-0.4216132	0.02294992	0.9005097
5	100	1555415327	-752.923	-62.708	664.168	-2.317073	2.073171	0.3658537	107	41	-143	0.1040028	-0.4220405	0.02307199	0.900296
5	100	1555415327	-758.169	-59.658	664.473	-2.073171	1.95122	0.4878049	109	39	-143	0.1038832	-0.4227119	0.02322459	0.8999909
5	100	1555415327	-758.047	-58.316	677.161	-2.195122	1.585366	0.2439024	109	39	-144	0.1039351	-0.4225898	0.02401807	0.9000214
5	100	1555415327	-756.4	-65.819	686.372	-2.317073	1.463415	0	108	40	-144	0.1038513	-0.4230476	0.02432325	0.8998078
5	100	1555415327	-765.855	-65.27	675.27	-2.195122	1.463415	0.3658537	108	39	-143	0.1039632	-0.4226814	0.0245674	0.8999603
5	100	1555415327	-756.888	-62.22	673.196	-2.073171	1.219512	0.3658537	109	38	-143	0.1038069	-0.4225898	0.0245674	0.9000214
5	100	1555415327	-761.89	-64.294	655.384	-2.317073	1.341463	0.4878049	107	40	-143	0.1039569	-0.4228339	0.02420118	0.8998993
5	100	1555415327	-751.276	-61.183	684.847	-2.195122	1.463415	0.3658537	109	41	-143	0.1038479	-0.4225288	0.02432325	0.9000519
5	100	1555415327	-750.422	-66.978	672.037	-2.439024	1.707317	0.4878049	110	39	-141	0.1040062	-0.4228339	0.02398755	0.8998993
5	100	1555415327	-758.108	-68.686	675.331	-2.439024	1.829268	0.1219512	108	39	-143	0.1039291	-0.4228034	0.02371288	0.8999298
5	100	1555415327	-755.485	-70.577	676.246	-2.682927	2.073171	0.3658537	109	40	-142	0.1040927	-0.4227119	0.02346873	0.8999603
5	100	1555415327	-759.694	-66.612	679.967	-2.804878	2.317073	0.2439024	109	39	-143	0.1040709	-0.4227424	0.02301096	0.8999603
5	100	1555415327	-751.581	-66.124	655.933	-2.682927	1.829268	0.1219512	108	40	-141	0.1039357	-0.4231086	0.02285836	0.8998078
5	100	1555415327	-758.108	-61.61	658.129	-2.682927	2.560976	0.3658537	107	39	-143	0.1039374	-0.4227119	0.02298044	0.8999909
5	100	1555415327	-751.52	-65.087	668.56	-2.926829	2.195122	0.3658537	109	38	-142	0.1039208	-0.4233833	0.02264473	0.8996857
5	100	1555415327	-758.657	-62.891	668.621	-3.292683	2.195122	0	109	39	-142	0.1039947	-0.4238105	0.02279733	0.8994721
5	100	1555415327	-750.544	-65.453	676.551	-2.682927	2.195122	0.1219512	109	39	-143	0.1039122	-0.4237495	0.02310251	0.8995026
5	100	1555415328	-769.271	-70.089	664.046	-2.926829	2.073171	0	108	40	-143	0.1039982	-0.4241768	0.02319407	0.8992889
5	100	1555415328	-769.881	-65.514	670.146	-2.682927	2.073171	0.2439024	109	39	-141	0.1039087	-0.4238716	0.0232551	0.8994415
5	100	1555415328	-757.681	-64.904	665.266	-2.804878	2.195122	0.2439024	108	40	-142	0.1039678	-0.4245125	0.02310251	0.8991363
5	100	1555415328	-761.097	-65.514	664.534	-2.926829	2.195122	0.1219512	110	40	-142	0.1038048	-0.4248787	0.02304148	0.8989837
5	100	1555415328	-748.409	-65.026	658.8	-3.292683	1.95122	0.1219512	109	38	-141	0.1037974	-0.4248177	0.02301096	0.8990142
5	100	1555415328	-763.11	-63.745	670.695	-3.414634	1.95122	0.1219512	109	39	-144	0.1040151	-0.4251533	0.02298044	0.8988311
5	100	1555415328	-748.287	-67.832	671.061	-3.658537	1.829268	0.2439024	108	42	-143	0.1037302	-0.4254891	0.02282785	0.8987091
5	100	1555415328	-766.465	-68.198	664.351	-3.658537	1.219512	0.2439024	108	40	-142	0.1037224	-0.425367	0.02273629	0.8987701
5	100	1555415328	-759.999	-64.782	664.046	-3.414634	1.219512	0.2439024	108	38	-142	0.1037448	-0.4256111	0.02288888	0.898648
5	100	1555415328	-754.143	-64.721	654.408	-3.658537	1.463415	0.4878049	108	40	-143	0.1037454	-0.4256722	0.02294992	0.8986175
5	100	1555415328	-755.18	-67.832	657.58	-4.146341	1.341463	0	108	39	-142	0.1037055	-0.4255806	0.02243111	0.8986785
5	100	1555415328	-750.666	-66.063	674.233	-4.02439	1.463415	0.1219512	108	40	-143	0.1037075	-0.4252754	0.0220954	0.8988311
5	100	1555415328	-759.023	-72.041	665.632	-3.780488	2.073171	-0.1219512	110	41	-142	0.103721	-0.4254891	0.02163762	0.8987396
5	100	1555415328	-756.766	-69.967	667.035	-4.146341	2.195122	-0.1219512	109	39	-142	0.1037167	-0.425306	0.02145451	0.8988311
5	100	1555415328	-756.034	-68.93	669.109	-4.390244	2.195122	-0.2439024	109	39	-143	0.103602	-0.4248177	0.02145451	0.8990753
5	100	1555415328	-764.269	-66.978	669.109	-4.02439	1.341463	-0.1219512	110	41	-143	0.1036589	-0.4255196	0.02133244	0.8987396
5	100	1555415328	-763.476	-68.686	653.798	-4.146341	0.9756098	-0.1219512	111	40	-144	0.1035185	-0.4257332	0.0216071	0.898648
5	100	1555415328	-758.352	-63.989	660.386	-3.658537	1.219512	0	107	40	-143	0.1034842	-0.4256111	0.02163762	0.8987091
5	100	1555415328	-758.474	-64.66	668.499	-3.780488	0.9756098	0.2439024	109	40	-143	0.1033531	-0.4253975	0.02139348	0.8988311
5	100	1555415328	-759.206	-69.784	674.355	-3.902439	0.4878049	0.2439024	109	39	-143	0.1034367	-0.4250008	0.02117985	0.8990142
5	100	1555415328	-754.265	-67.832	688.629	-4.02439	0.3658537	0.2439024	109	40	-142	0.1034286	-0.4249397	0.02114933	0.8990448
5	100	1555415328	-760.914	-72.346	658.068	-4.02439	0.3658537	-0.1219512	111	40	-145	0.1034036	-0.4247566	0.02105777	0.8991363
5	100	1555415328	-756.278	-70.76	676.185	-3.780488	0.7317073	0.1219512	110	42	-143	0.1032357	-0.4241462	0.02114933	0.8994415
5	100	1555415328	-758.962	-66.734	667.096	-4.146341	1.219512	0.1219512	109	40	-142	0.1033047	-0.4244514	0.02117985	0.8992889
5	100	1555415328	-755.912	-67.893	666.913	-4.02439	1.341463	0.1219512	108	40	-143	0.1034016	-0.4248787	0.02121036	0.8990753
5	100	1555415328	-753.411	-69.418	667.157	-3.780488	1.585366	0	109	42	-143	0.1031294	-0.4246956	0.02102725	0.8991973
5	100	1555415328	-759.633	-70.394	674.111	-3.902439	1.707317	0	109	41	-144	0.1032083	-0.4248177	0.02078311	0.8991363
5	100	1555415328	-755.546	-72.651	670.939	-3.536585	1.707317	0	109	41	-144	0.103285	-0.4243599	0.02050844	0.8993499
5	100	1555415328	-766.099	-67.893	672.769	-3.414634	1.341463	-0.3658537	110	42	-143	0.1031713	-0.4247871	0.02026429	0.8991668
5	100	1555415328	-751.398	-71.858	644.038	-3.536585	1.341463	-0.1219512	109	40	-143	0.1033263	-0.424604	0.02059999	0.8992279
5	100	1555415328	-758.352	-64.599	666.913	-3.658537	1.097561	0.1219512	108	40	-143	0.1032054	-0.4243599	0.02090518	0.8993499
5	100	1555415328	-761.951	-69.174	650.748	-3.536585	0.9756098	0.3658537	109	42	-144	0.1030378	-0.4242683	0.02096622	0.899411
5	100	1555415328	-762.561	-66.002	699.182	-3.170732	1.829268	0.3658537	109	40	-143	0.103019	-0.4236885	0.02099673	0.8996857
5	100	1555415328	-755.424	-74.786	692.289	-2.926829	2.560976	0	108	40	-143	0.1030959	-0.4226508	0.02059999	0.900174
5	100	1555415328	-769.027	-74.237	627.324	-5.121951	3.658537	0	109	41	-143	0.1032403	-0.4245735	0.02032533	0.8992584
5	100	1555415328	-760.975	-68.076	649.955	-4.268293	4.146341	-0.2439024	110	40	-142	0.1028003	-0.4261605	0.02038636	0.8985565
5	100	1555415328	-754.753	-66.978	680.455	-1.829268	4.634147	0	108	42	-145	0.1031005	-0.425306	0.02056948	0.8989227
5	100	1555415328	-759.45	-65.392	686.25	-2.439024	1.097561	0.1219512	110	40	-144	0.1032885	-0.4233528	0.02121036	0.8998078
5	100	1555415328	-748.165	-71.797	673.928	-1.585366	0.1219512	0.4878049	109	41	-144	0.103119	-0.4217658	0.0212714	0.9005707
5	100	1555415328	-754.448	-72.346	660.264	-2.560976	1.707317	0.3658537	110	42	-143	0.10311	-0.4227729	0.02069155	0.9001129
5	100	1555415328	-758.962	-74.786	661.728	-3.170732	1.95122	0.2439024	109	40	-143	0.1030991	-0.4246956	0.01983703	0.8992279
5	100	1555415328	-755.058	-71.919	664.412	-3.292683	3.04878	0.2439024	108	42	-144	0.1033502	-0.4249702	0.01956237	0.8990753
5	100	1555415328	-756.217	-74.603	672.464	-4.146341	3.658537	-0.1219512	108	43	-149	0.1031083	-0.4246651	0.01904355	0.8992584
5	100	1555415328	-762.988	-69.113	667.523	-5.487805	4.756098	-0.1219512	109	40	-142	0.1031594	-0.4239326	0.01922666	0.8995941
5	100	1555415328	-752.008	-69.174	686.738	-6.341464	4.02439	0	109	41	-143	0.1032083	-0.4230171	0.01913511	0.9000214
5	100	1555415328	-754.082	-73.2	673.745	-6.219512	3.04878	-0.3658537	109	40	-141	0.1029947	-0.4234748	0.01876888	0.8998383
5	100	1555415328	-763.293	-76.128	675.026	-5.487805	3.170732	-0.2439024	111	41	-143	0.1030137	-0.4237495	0.01831111	0.8997162
5	100	1555415328	-768.234	-76.006	667.767	-5	3.414634	-0.1219512	110	40	-142	0.1028757	-0.4246956	0.01815851	0.8992889
5	100	1555415328	-770.552	-76.067	669.658	-4.146341	3.536585	0.1219512	109	42	-143	0.102758	-0.4258248	0.01806696	0.8987701
5	100	1555415328	-760.792	-79.666	656.909	-3.780488	3.292683	0	110	42	-141	0.1027731	-0.4269234	0.01785333	0.8982513
5	100	1555415328	-753.228	-77.409	654.652	-3.658537	2.926829	0.1219512	110	42	-142	0.1025641	-0.4273812	0.017304	0.8980682
5	100	1555415328	-741.943	-75.274	666.791	-3.780488	2.317073	0.4878049	109	42	-144	0.1025388	-0.4275338	0.01684622	0.8980072
5	100	1555415328	-753.594	-72.834	664.412	-3.414634	1.829268	0.7317073	109	42	-143	0.1027446	-0.4272897	0.01690725	0.8980987
5	100	1555415328	-753.716	-73.322	668.499	-2.682927	0.4878049	0.3658537	110	40	-141	0.1025013	-0.4263131	0.01709037	0.898587
5	100	1555415328	-756.888	-74.847	667.279	-2.560976	0.2439024	0.8536586	109	42	-142	0.1025542	-0.4256417	0.01745659	0.8988922
5	100	1555415328	-759.145	-75.762	666.059	-2.560976	0.1219512	0.8536586	111	42	-141	0.1024053	-0.426252	0.01757866	0.8986175
5	100	1555415328	-753.106	-73.444	650.809	-2.195122	-0.1219512	0.7317073	110	43	-146	0.1023925	-0.4257942	0.01782281	0.8988311
5	100	1555415328	-755.668	-75.884	651.663	-2.560976	-0.2439024	0.4878049	110	41	-142	0.1026599	-0.4251533	0.01773125	0.8991058
5	100	1555415328	-752.862	-70.638	681.736	-2.926829	0.1219512	0.6097561	107	39	-142	0.1024009	-0.4246345	0.01773125	0.8993804
5	100	1555415328	-761.158	-82.533	659.471	-3.414634	0.4878049	0.6097561	111	42	-143	0.1025324	-0.4257942	0.01699881	0.8988311
5	100	1555415328	-763.293	-86.864	676.063	-3.04878	0.2439024	0.6097561	110	41	-141	0.102313	-0.425367	0.01608326	0.8990753
5	100	1555415328	-762.378	-79.178	678.381	-3.170732	-0.7317073	0.8536586	109	43	-143	0.1024029	-0.4245125	0.01590014	0.8994721
5	100	1555415328	-765.55	-76.494	662.521	-2.682927	0.1219512	0.6097561	109	42	-143	0.1024443	-0.4253975	0.01614429	0.8990448
5	100	1555415328	-760.67	-75.701	647.21	-1.707317	0.8536586	0.4878049	110	40	-143	0.1021897	-0.4260079	0.01693777	0.8987701
5	100	1555415328	-761.402	-69.052	641.476	-1.95122	0.3658537	0.7317073	108	42	-142	0.1022238	-0.4266182	0.01754814	0.8984649
5	100	1555415328	-751.886	-68.686	677.1	-2.682927	0.7317073	0.6097561	109	41	-143	0.1022089	-0.4262826	0.0179754	0.8986175
5	100	1555415328	-756.4	-77.653	663.802	-3.292683	0.6097561	0.6097561	109	41	-141	0.1020154	-0.4254891	0.01803644	0.8990142
5	100	1555415328	-757.925	-71.492	691.862	-3.902439	0.8536586	0.3658537	110	42	-142	0.1022786	-0.4249702	0.01812799	0.8992279
5	100	1555415328	-765.428	-76.677	674.355	-3.292683	1.341463	0.3658537	109	43	-144	0.1021535	-0.424482	0.01815851	0.8994721
5	100	1555415328	-760.792	-68.076	676.795	-3.414634	1.219512	0.1219512	109	42	-142	0.1021179	-0.4240852	0.01855525	0.8996552
5	100	1555415328	-751.764	-68.32	641.964	-3.414634	1.097561	0.4878049	108	41	-143	0.1019427	-0.4245735	0.01870785	0.8994415
5	100	1555415328	-758.84	-64.538	675.758	-3.292683	1.341463	0.2439024	110	41	-143	0.1019251	-0.4240547	0.01882992	0.8996857
5	100	1555415328	-755.607	-66.978	669.78	-3.170732	1.219512	0.3658537	109	41	-143	0.1018309	-0.4243294	0.01898251	0.8995636
5	100	1555415328	-756.583	-72.163	679.967	-3.170732	1.219512	0.1219512	109	41	-145	0.1018517	-0.4245735	0.01919614	0.8994415
5	100	1555415328	-755.851	-69.601	677.1	-3.292683	1.463415	0.3658537	110	43	-144	0.1016065	-0.4253975	0.01940977	0.8990753
5	100	1555415328	-765.672	-73.688	658.434	-3.292683	1.341463	0.2439024	109	41	-144	0.1016012	-0.4259773	0.01944029	0.8988006
5	100	1555415328	-764.086	-70.15	664.29	-3.170732	1.219512	0.4878049	108	42	-142	0.1018874	-0.4255196	0.01950133	0.8989837
5	100	1555415328	-748.714	-69.174	647.088	-3.292683	0.9756098	0.2439024	109	41	-143	0.1016338	-0.4259163	0.01919614	0.8988311
5	100	1555415328	-755.241	-66.978	660.02	-3.292683	0.8536586	0.6097561	108	42	-144	0.1016593	-0.4259773	0.01913511	0.8988006
5	100	1555415328	-749.385	-69.967	665.815	-3.292683	0.4878049	0.4878049	109	43	-145	0.1017355	-0.4261605	0.018952	0.8987091
5	100	1555415328	-755.18	-75.335	666.73	-3.536585	0.6097561	0.4878049	109	42	-141	0.1016194	-0.4259468	0.01858577	0.8988311
5	100	1555415328	-753.167	-71.614	671.305	-3.414634	0.3658537	0.2439024	108	42	-143	0.1014821	-0.4257942	0.01840266	0.8989227
5	100	1555415328	-757.742	-74.42	674.477	-3.292683	0.8536586	0.4878049	110	41	-145	0.1014304	-0.4258248	0.0179754	0.8989227
5	100	1555415328	-767.868	-73.871	678.137	-3.170732	1.097561	0.2439024	109	41	-144	0.1015836	-0.4256722	0.01767022	0.8989837
5	100	1555415328	-751.825	-75.091	660.447	-3.04878	0.9756098	0.3658537	109	42	-144	0.1014583	-0.4251228	0.0176397	0.8992584
5	100	1555415328	-756.217	-72.163	664.839	-3.414634	1.707317	0.3658537	108	42	-144	0.1014709	-0.4250008	0.01739555	0.8993194
5	100	1555415328	-747.433	-73.261	667.828	-2.926829	1.707317	0.3658537	110	44	-143	0.1014982	-0.4248787	0.01705985	0.8993804
5	100	1555415328	-759.877	-72.895	672.037	-2.804878	1.341463	0.4878049	109	42	-145	0.1014545	-0.4252144	0.01699881	0.8992279
5	100	1555415328	-752.862	-71.126	672.403	-2.804878	1.219512	0.2439024	109	41	-143	0.1016452	-0.4249702	0.01712088	0.8993194
5	100	1555415328	-767.746	-74.054	666.12	-2.560976	1.097561	0.3658537	110	43	-144	0.1013081	-0.425428	0.01736503	0.8991363
5	100	1555415328	-759.999	-70.577	671.061	-2.804878	0.4878049	0.2439024	109	40	-145	0.101495	-0.4248482	0.01782281	0.8993804
5	100	1555415328	-756.4	-77.592	668.499	-3.04878	0.7317073	0.7317073	109	42	-145	0.1014962	-0.4247871	0.01773125	0.899411
5	100	1555415328	-753.655	-72.712	676.612	-3.170732	0.7317073	0.2439024	108	41	-144	0.1014404	-0.4238411	0.01745659	0.8998688
5	100	1555415328	-748.653	-74.176	670.024	-3.536585	1.463415	0	108	40	-145	0.1013804	-0.422956	0.01724296	0.900296
5	100	1555415328	-755.729	-70.882	682.895	-3.414634	1.219512	0.3658537	108	41	-144	0.101381	-0.4227119	0.01684622	0.9004181
5	100	1555415328	-754.875	-84.241	669.963	-3.780488	1.097561	0.1219512	108	42	-144	0.1015534	-0.4226814	0.01657155	0.9004181
5	100	1555415328	-754.387	-75.03	666.974	-3.536585	1.097561	0.3658537	108	43	-144	0.1012639	-0.4235359	0.01641896	0.9000519
5	100	1555415328	-754.509	-73.2	653.127	-3.04878	1.585366	0.2439024	109	41	-144	0.1013595	-0.4239631	0.01651051	0.8998383
5	100	1555415329	-755.546	-74.847	658.068	-3.536585	0.8536586	0.3658537	109	42	-147	0.1011261	-0.4235664	0.01648	0.9000519
5	100	1555415329	-752.801	-69.784	690.52	-3.292683	1.219512	0.1219512	108	41	-143	0.1012015	-0.4227729	0.01638844	0.9004181
5	100	1555415329	-756.095	-75.457	666.059	-3.292683	0.7317073	0.2439024	109	42	-144	0.1011741	-0.4230476	0.01617481	0.900296
5	100	1555415329	-759.023	-76.189	682.102	-3.658537	1.341463	-0.1219512	109	43	-144	0.1012766	-0.4228339	0.01602222	0.9003876
5	100	1555415329	-755.546	-78.751	668.438	-3.658537	1.219512	0.1219512	108	42	-145	0.1011806	-0.4233833	0.01583911	0.9001434
5	100	1555415329	-757.864	-81.191	684.481	-3.292683	1.463415	0	109	43	-146	0.1012698	-0.4236885	0.01577807	0.8999909
5	100	1555415329	-756.583	-79.483	653.005	-3.170732	1.95122	0.1219512	108	43	-147	0.1011037	-0.423719	0.01602222	0.8999909
5	100	1555415329	-755.18	-70.089	648.735	-3.536585	1.707317	0.1219512	109	42	-143	0.1011541	-0.4240852	0.01629688	0.8998078
5	100	1555415329	-750.91	-71.858	670.634	-3.780488	1.341463	0.2439024	107	42	-147	0.1009733	-0.4238716	0.01623585	0.8999298
5	100	1555415329	-757.742	-79.361	668.682	-3.780488	1.341463	0.1219512	108	43	-143	0.1011706	-0.4235664	0.01620533	0.9000519
5	100	1555415329	-757.742	-71.858	686.921	-3.780488	0.8536586	0	109	43	-145	0.1010607	-0.4232612	0.01638844	0.9002045
5	100	1555415329	-755.058	-76.128	670.39	-4.268293	1.097561	0.1219512	109	44	-147	0.1009783	-0.4233528	0.01620533	0.900174
5	100	1555415329	-761.646	-73.81	672.586	-3.780488	1.097561	0.2439024	109	42	-146	0.1008827	-0.4235054	0.01620533	0.9001129
5	100	1555415329	-759.511	-82.106	647.454	-3.536585	1.341463	0	108	44	-145	0.1008029	-0.4241157	0.0159917	0.8998383
5	100	1555415329	-752.191	-73.932	656.848	-3.658537	1.707317	0	109	42	-152	0.1010208	-0.4242683	0.01571703	0.8997467
5	100	1555415329	-754.204	-70.333	673.196	-3.658537	1.829268	0.1219512	107	44	-146	0.1009063	-0.4248787	0.01568651	0.8994721
5	100	1555415329	-752.74	-75.823	670.085	-3.780488	2.195122	0.2439024	107	42	-143	0.1006203	-0.4249397	0.01586962	0.8994721
5	100	1555415329	-750.117	-72.773	684.176	-3.536585	1.585366	0.2439024	109	43	-144	0.1007002	-0.4248482	0.01608326	0.8995026
5	100	1555415329	-762.744	-76.494	665.571	-2.804878	1.707317	0.1219512	108	43	-146	0.1006538	-0.424604	0.0159917	0.8996246
5	100	1555415329	-766.038	-74.969	672.769	-3.292683	1.097561	0.2439024	109	43	-147	0.1006911	-0.4242683	0.01608326	0.8997772
5	100	1555415329	-757.986	-72.712	658.678	-3.658537	1.097561	0.6097561	109	44	-146	0.1005305	-0.4246956	0.01605274	0.8995941
5	100	1555415329	-761.707	-73.81	665.022	-4.02439	0.1219512	0.4878049	107	43	-145	0.1005907	-0.4248787	0.01596118	0.8995026
5	100	1555415329	-750.361	-75.152	662.887	-4.146341	0	0.4878049	108	45	-146	0.1004614	-0.4242683	0.01580859	0.8998078
5	100	1555415329	-755.424	-77.226	690.581	-2.804878	0.7317073	0	107	42	-146	0.1004733	-0.4232307	0.01574755	0.900296
5	100	1555415329	-760.06	-80.825	659.776	-4.512195	2.682927	0.1219512	108	43	-147	0.1004668	-0.424604	0.01544237	0.8996552
5	100	1555415329	-769.637	-74.786	636.962	-5	2.804878	0.1219512	107	42	-145	0.1000604	-0.4275948	0.0155034	0.8982818
5	100	1555415329	-753.228	-69.845	685.03	-1.707317	3.170732	0.1219512	109	46	-145	0.1001756	-0.4266488	0.01605274	0.8987091
5	100	1555415329	-761.158	-71.431	680.943	-1.707317	0.6097561	0.7317073	110	44	-146	0.1002283	-0.4250008	0.01669363	0.8994721
5	100	1555415329	-753.838	-69.784	688.812	-1.341463	-0.6097561	0.6097561	107	45	-148	0.1003614	-0.4226203	0.01709037	0.9005707
5	100	1555415329	-747.921	-81.618	651.114	-0.9756098	0	0.3658537	110	43	-145	0.1004139	-0.4222236	0.01693777	0.9007538
5	100	1555415329	-755.912	-81.008	667.828	-1.95122	1.463415	0.3658537	109	44	-146	0.1004771	-0.4243294	0.01580859	0.8997772
5	100	1555415329	-748.409	-78.812	665.51	-2.195122	3.170732	-0.1219512	108	42	-145	0.1004377	-0.4243599	0.01522874	0.8997772
5	100	1555415329	-752.862	-75.335	670.573	-3.658537	4.390244	0	108	43	-144	0.1004887	-0.424543	0.01519822	0.8996857
5	100	1555415329	-750.544	-78.263	683.688	-4.878049	4.634147	0	107	43	-144	0.1005077	-0.4235054	0.01510666	0.900174
5	100	1555415329	-763.537	-77.409	671.671	-6.341464	3.536585	0	109	42	-144	0.1006141	-0.4226508	0.0146794	0.9005707
5	100	1555415329	-758.901	-79.3	670.573	-5.853659	2.073171	0	109	44	-144	0.1003243	-0.4228034	0.01413007	0.9005402
5	100	1555415329	-766.831	-78.507	664.046	-5.121951	1.585366	-0.1219512	107	44	-145	0.1003813	-0.424482	0.01394696	0.8997467
5	100	1555415329	-770.735	-78.751	672.83	-4.512195	1.829268	0.2439024	109	43	-144	0.1002812	-0.4253365	0.01422163	0.8993499
5	100	1555415329	-773.785	-81.923	668.377	-3.536585	1.95122	-0.1219512	108	44	-145	0.1001325	-0.4264657	0.01425214	0.8988311
5	100	1555415329	-767.746	-80.642	670.451	-3.292683	2.195122	0.2439024	108	45	-143	0.1001045	-0.4263436	0.01425214	0.8988922
5	100	1555415329	-757.864	-78.08	658.312	-2.926829	2.317073	0.6097561	108	44	-143	0.1000312	-0.427137	0.01409955	0.898526
5	100	1555415329	-751.398	-76.677	659.166	-3.170732	2.317073	0.4878049	109	45	-147	0.09995494	-0.4275948	0.01437422	0.8983123
5	100	1555415329	-745.054	-79.3	650.321	-3.292683	1.707317	0.7317073	108	44	-144	0.1000077	-0.4265572	0.01431318	0.8988006
5	100	1555415329	-748.653	-71.126	693.265	-3.292683	0.8536586	0.6097561	109	44	-142	0.09981561	-0.425367	0.01464888	0.8993804
5	100	1555415329	-748.348	-83.265	679.662	-3.292683	0.8536586	0.7317073	108	44	-144	0.1000712	-0.4240242	0.0143437	0.8999909
5	100	1555415329	-756.705	-82.106	667.523	-3.04878	0.6097561	0.4878049	109	43	-145	0.0999287	-0.4238716	0.01409955	0.9000824
5	100	1555415329	-754.204	-77.409	655.201	-2.804878	0.9756098	0.7317073	108	44	-145	0.09987142	-0.4241462	0.01403851	0.8999603
5	100	1555415329	-760.792	-81.13	655.689	-2.804878	1.097561	0.3658537	108	41	-146	0.09981322	-0.4238411	0.01388592	0.9001129
5	100	1555415329	-758.169	-76.982	695.4	-2.682927	0.6097561	0.4878049	109	43	-146	0.09987649	-0.4229865	0.01376385	0.9005097
5	100	1555415329	-765.55	-77.409	660.386	-3.536585	0.3658537	0.6097561	109	44	-145	0.09996448	-0.4237495	0.01361126	0.9001434
5	100	1555415329	-765.123	-79.178	680.638	-3.414634	1.097561	0.7317073	109	43	-144	0.09968773	-0.4242073	0.01348918	0.8999603
5	100	1555415329	-767.807	-84.485	684.969	-2.073171	0.2439024	0.8536586	110	43	-145	0.09978664	-0.4238105	0.01300089	0.9001434
5	100	1555415329	-770.064	-79.544	696.559	-1.95122	0	0.7317073	110	43	-144	0.09984785	-0.4235359	0.0130314	0.9002655
5	100	1555415329	-754.448	-78.568	651.114	-1.829268	1.097561	0.4878049	108	44	-144	0.09988008	-0.423719	0.01315348	0.900174
5	100	1555415329	-756.583	-78.568	652.151	-2.073171	1.341463	0.6097561	109	43	-146	0.099815	-0.423658	0.0135197	0.9002045
5	100	1555415329	-740.906	-71.431	691.618	-2.317073	1.219512	0.8536586	108	44	-147	0.09989231	-0.4231696	0.014008	0.9004181
5	100	1555415329	-746.701	-82.167	675.697	-3.04878	1.219512	0.7317073	110	44	-144	0.09997194	-0.4227729	0.01364177	0.9006012
5	100	1555415329	-746.457	-75.64	673.928	-3.658537	0.6097561	0.7317073	108	44	-145	0.09996419	-0.4217963	0.01370281	0.901059
5	100	1555415329	-750.788	-79.91	676.063	-3.414634	1.097561	0.4878049	109	44	-144	0.09990663	-0.4211554	0.01376385	0.9013641
5	100	1555415329	-761.829	-77.165	689.605	-2.804878	1.95122	0.3658537	108	44	-145	0.0998168	-0.4209113	0.01388592	0.9014863
5	100	1555415329	-750.422	-79.361	653.066	-2.317073	1.95122	0.2439024	109	44	-145	0.09966232	-0.4209418	0.01406903	0.9014863
5	100	1555415329	-752.923	-76.677	663.497	-2.073171	2.073171	0	110	42	-144	0.09980933	-0.4205146	0.01406903	0.9016694
5	100	1555415329	-749.019	-78.751	689.239	-1.95122	2.439024	0.1219512	110	44	-145	0.09985501	-0.4206366	0.014008	0.9016083
5	100	1555415329	-757.01	-78.141	669.353	-2.195122	2.804878	0.2439024	108	43	-142	0.09972091	-0.4221015	0.01409955	0.9009369
5	100	1555415329	-758.779	-75.152	674.538	-2.682927	2.804878	0.2439024	108	44	-144	0.09967248	-0.4225593	0.01437422	0.9007233
5	100	1555415329	-756.583	-76.921	674.477	-3.04878	2.439024	0.3658537	109	44	-144	0.09987112	-0.422956	0.01470992	0.9005097
5	100	1555415329	-759.877	-73.505	671.366	-2.804878	1.585366	0.4878049	107	42	-145	0.09960309	-0.4235969	0.01489303	0.900235
5	100	1555415329	-756.278	-76.677	657.397	-2.804878	1.219512	0.3658537	109	45	-144	0.09971792	-0.4240852	0.01498459	0.8999909
5	100	1555415329	-761.463	-77.226	657.458	-2.926829	1.097561	0.4878049	109	44	-146	0.09964707	-0.4242378	0.01480148	0.8999298
5	100	1555415329	-744.139	-74.969	674.477	-2.804878	1.219512	0.4878049	108	43	-146	0.09961416	-0.4235359	0.01470992	0.9002655
5	100	1555415329	-754.692	-75.762	670.817	-2.804878	1.585366	0.6097561	110	44	-144	0.09962583	-0.4235969	0.01474044	0.900235
5	100	1555415329	-754.204	-77.287	672.159	-2.926829	2.195122	0.4878049	108	44	-147	0.09941921	-0.4238411	0.01470992	0.9001434
5	100	1555415329	-755.363	-82.655	675.453	-2.926829	2.560976	0.2439024	109	44	-145	0.0995986	-0.4230171	0.01480148	0.9005097
5	100	1555415329	-758.657	-78.019	679.418	-2.804878	3.04878	0	109	44	-144	0.09971583	-0.4233833	0.0146794	0.9003266
5	100	1555415329	-756.034	-80.703	673.013	-2.682927	3.04878	0.1219512	109	43	-146	0.09943719	-0.423658	0.01425214	0.900235
5	100	1555415329	-762.561	-77.287	666.913	-3.170732	3.536585	0.2439024	109	44	-145	0.09949142	-0.42378	0.01409955	0.900174
5	100	1555415329	-748.775	-77.287	676.917	-3.04878	3.04878	0.4878049	111	42	-144	0.0995052	-0.423719	0.01388592	0.9002045
5	100	1555415329	-757.193	-80.581	669.475	-3.04878	2.682927	0.3658537	110	43	-145	0.0996004	-0.4244209	0.0135197	0.8998688
5	100	1555415329	-767.502	-78.995	679.357	-3.04878	2.317073	0.2439024	109	44	-143	0.09931514	-0.4248787	0.01342814	0.8996857
5	100	1555415329	-759.084	-81.191	672.159	-2.926829	1.95122	0.1219512	109	43	-146	0.0995067	-0.4245125	0.01336711	0.8998383
5	100	1555415329	-766.77	-79.544	665.144	-2.926829	2.073171	0.2439024	108	45	-144	0.09944528	-0.4250313	0.01376385	0.8995941
5	100	1555415329	-756.583	-77.409	670.939	-3.170732	1.95122	0	111	43	-145	0.09956568	-0.4251839	0.01416059	0.8995026
5	100	1555415329	-757.01	-79.666	646.661	-3.292683	2.804878	0.1219512	109	42	-145	0.09934304	-0.4254891	0.01431318	0.8993804
5	100	1555415329	-755.79	-72.224	643.55	-3.04878	2.195122	0.4878049	108	44	-144	0.0992605	-0.4258858	0.01458785	0.8991973
5	100	1555415329	-754.265	-77.226	669.963	-2.682927	2.195122	0.1219512	110	43	-143	0.09920404	-0.4260994	0.01437422	0.8991058
5	100	1555415329	-762.744	-81.13	669.536	-2.682927	1.95122	0.1219512	108	44	-145	0.09923468	-0.4260994	0.01416059	0.8991058
5	100	1555415329	-756.156	-79.849	675.453	-3.170732	1.585366	0.2439024	110	45	-144	0.09936643	-0.4255501	0.01425214	0.8993499
5	100	1555415329	-761.463	-76.738	682.163	-2.926829	1.707317	0.2439024	110	44	-144	0.09939492	-0.4246956	0.01449629	0.8997467
5	100	1555415329	-761.402	-80.886	668.316	-3.170732	1.829268	0.1219512	111	45	-144	0.09929322	-0.425306	0.0143437	0.8994721
5	100	1555415329	-756.583	-78.202	673.745	-3.04878	1.585366	0	108	44	-145	0.09931514	-0.425306	0.01419111	0.8994721
5	100	1555415329	-758.474	-72.529	662.155	-3.292683	1.829268	0.2439024	107	44	-143	0.09929593	-0.4252449	0.01422163	0.8995026
5	100	1555415329	-758.657	-74.298	663.802	-3.170732	1.707317	0	110	44	-143	0.09941231	-0.4257942	0.0143437	0.8992279
5	100	1555415329	-758.657	-75.762	671.854	-2.926829	1.341463	0.2439024	109	45	-145	0.09929263	-0.425428	0.01455733	0.899411
5	100	1555415329	-760.67	-81.374	668.56	-2.804878	1.097561	0.1219512	111	44	-144	0.09929593	-0.4252449	0.01422163	0.8995026
5	100	1555415329	-761.463	-75.945	675.453	-3.04878	1.707317	0.3658537	111	40	-144	0.09920464	-0.4248787	0.01422163	0.8996857
5	100	1555415329	-756.217	-82.411	673.318	-3.170732	1.829268	0.3658537	110	45	-143	0.09924639	-0.424482	0.01419111	0.8998688
5	100	1555415329	-764.086	-74.481	664.107	-2.926829	1.829268	0.3658537	109	44	-143	0.09938173	-0.4246956	0.01458785	0.8997467
5	100	1555415329	-767.197	-74.42	669.658	-3.292683	2.804878	0.1219512	110	44	-144	0.09922928	-0.4252449	0.0146794	0.8995026
5	100	1555415329	-748.47	-79.666	638.365	-3.292683	2.682927	0	109	43	-143	0.09927522	-0.4259468	0.01458785	0.8991668
5	100	1555415329	-760.365	-72.651	657.58	-2.926829	1.95122	0.2439024	109	43	-142	0.09902453	-0.4267098	0.0146794	0.8988311
5	100	1555415329	-755.424	-76.799	665.754	-3.04878	1.707317	-0.1219512	108	44	-144	0.09916618	-0.4271981	0.01446577	0.898587
5	100	1555415329	-755.302	-79.91	662.582	-2.804878	1.585366	0.2439024	110	44	-142	0.09904349	-0.4271676	0.01431318	0.8986175
5	100	1555415329	-749.446	-73.322	686.738	-2.926829	1.829268	0	110	43	-142	0.09911358	-0.4264962	0.0146794	0.8989227
5	100	1555415329	-761.28	-79.666	666.12	-3.04878	2.073171	0.1219512	109	44	-143	0.09918571	-0.4265572	0.01428266	0.8988922
5	100	1555415329	-758.535	-74.054	669.719	-3.780488	1.341463	0.2439024	108	43	-143	0.09914725	-0.4259163	0.01446577	0.8991973
5	100	1555415329	-750.422	-76.006	659.776	-4.146341	0.9756098	0.6097561	109	44	-144	0.09907959	-0.4254891	0.01422163	0.899411
5	100	1555415329	-761.524	-76.372	667.34	-4.146341	1.219512	0.2439024	110	43	-144	0.09900317	-0.4257637	0.01425214	0.8992889
5	100	1555415329	-754.448	-77.775	677.588	-3.170732	2.317073	0	110	45	-143	0.09896673	-0.4250008	0.01416059	0.8996552
5	100	1555415329	-758.474	-82.106	638.121	-4.268293	4.390244	0	110	44	-142	0.09891523	-0.4268319	0.01370281	0.8988006
5	100	1555415329	-757.437	-75.396	656.299	-5.365854	4.756098	0.1219512	110	44	-142	0.09856269	-0.4296701	0.01355022	0.8974884
5	100	1555415329	-764.513	-77.409	674.416	-1.95122	3.902439	0.2439024	110	43	-142	0.09857237	-0.4299142	0.01382488	0.8973662
5	100	1555415329	-767.075	-69.418	692.167	-1.341463	0.9756098	0.3658537	110	43	-143	0.09889805	-0.4275033	0.01486251	0.8984649
5	100	1555415330	-760.792	-73.993	669.292	-1.707317	-0.1219512	0.1219512	109	45	-142	0.09893541	-0.4260689	0.01519822	0.8991363
5	100	1555415330	-755.546	-81.862	646.844	-1.219512	0.2439024	0.1219512	110	44	-144	0.09893601	-0.4257637	0.01470992	0.8992889
5	100	1555415330	-753.716	-80.886	651.968	-2.195122	1.097561	-0.1219512	112	45	-143	0.09903416	-0.4268014	0.01379437	0.8988006
5	100	1555415330	-744.749	-83.57	648.247	-2.195122	3.170732	-0.1219512	109	45	-144	0.09920945	-0.4272286	0.01321451	0.898587
5	100	1555415330	-756.522	-81.679	669.109	-3.04878	4.390244	-0.3658537	109	44	-142	0.0991746	-0.4276254	0.01309244	0.8984039
5	100	1555415330	-748.165	-82.228	680.943	-4.634147	4.512195	-0.1219512	110	44	-143	0.09914755	-0.4268624	0.01306192	0.8987701
5	100	1555415330	-770.247	-81.557	673.928	-5.609756	4.02439	-0.3658537	110	44	-142	0.09913161	-0.4267403	0.01297037	0.8988311
5	100	1555415330	-775.127	-77.409	662.094	-6.097561	1.95122	-0.2439024	112	44	-144	0.09883083	-0.4277169	0.0126957	0.8984039
5	100	1555415330	-771.955	-81.557	654.774	-4.756098	1.219512	0.1219512	112	45	-143	0.09876929	-0.4285714	0.01242103	0.8980072
5	100	1555415330	-775.554	-81.374	663.863	-3.780488	1.585366	0.3658537	110	46	-143	0.09895077	-0.428724	0.01232948	0.8979156
5	100	1555415330	-764.391	-81.923	669.109	-3.170732	1.341463	0.2439024	111	45	-142	0.09872855	-0.4288461	0.01208533	0.8978851
5	100	1555415330	-761.097	-83.265	665.327	-2.682927	0.9756098	0.1219512	110	46	-143	0.09872101	-0.4282663	0.01229896	0.8981597
5	100	1555415330	-760.487	-77.958	666.791	-2.926829	1.097561	0.3658537	110	44	-142	0.09876929	-0.4279305	0.01245155	0.8983123
5	100	1555415330	-756.278	-81.618	668.865	-2.926829	1.707317	0.7317073	109	42	-144	0.09878619	-0.4281747	0.01272622	0.8981903
5	100	1555415330	-760.487	-83.326	667.035	-2.804878	1.097561	0.7317073	110	44	-142	0.09879463	-0.4275338	0.01266518	0.8984954
5	100	1555415330	-750.727	-80.276	664.229	-2.926829	0.7317073	0.4878049	110	44	-144	0.09893601	-0.4269234	0.01266518	0.8987701
5	100	1555415330	-746.945	-80.764	655.506	-3.170732	0	0.6097561	110	44	-143	0.09873428	-0.426191	0.01290933	0.8991363
5	100	1555415330	-752.618	-77.409	671.671	-3.170732	0.3658537	0.4878049	110	45	-145	0.09861469	-0.4256417	0.01281777	0.899411
5	100	1555415330	-753.533	-78.568	677.405	-2.804878	0.4878049	0.3658537	111	44	-143	0.09863614	-0.4251839	0.01284829	0.8996246
5	100	1555415330	-759.267	-83.021	688.324	-2.560976	0.4878049	0.3658537	110	44	-143	0.09880308	-0.4246956	0.01275674	0.8998383
5	100	1555415330	-757.681	-79.422	700.402	-3.170732	0.3658537	0.2439024	110	45	-143	0.09884258	-0.4241157	0.01236	0.9001129
5	100	1555415330	-760.914	-81.801	681.248	-2.804878	0.6097561	0.2439024	108	45	-142	0.09891523	-0.42378	0.01217689	0.9002655
5	100	1555415330	-769.271	-84.424	679.296	-3.414634	1.097561	0.6097561	110	45	-143	0.09859715	-0.4251533	0.01199377	0.8996552
5	100	1555415330	-766.831	-83.692	680.089	-3.04878	1.707317	0.6097561	110	45	-145	0.09864127	-0.4256722	0.011536	0.899411
5	100	1555415330	-766.831	-82.533	664.412	-2.195122	0	0.6097561	110	44	-143	0.09870047	-0.4253365	0.01150548	0.8995636
5	100	1555415330	-759.694	-78.019	668.56	-1.707317	0.4878049	0.4878049	109	43	-145	0.09870138	-0.4250008	0.01196326	0.8997162
5	100	1555415330	-754.448	-81.618	664.351	-1.829268	1.95122	0.3658537	110	45	-146	0.09869111	-0.4251228	0.01229896	0.8996552
5	100	1555415330	-755.607	-82.96	666.608	-2.439024	1.341463	0.3658537	107	45	-145	0.09856329	-0.4251533	0.01226844	0.8996552
5	100	1555415330	-757.498	-81.313	687.653	-3.04878	1.95122	0.1219512	110	44	-144	0.09870289	-0.4247261	0.01251259	0.8998383
5	100	1555415330	-755.973	-84.912	685.213	-3.902439	1.463415	0.2439024	110	44	-144	0.09867057	-0.4239631	0.01229896	0.9002045
5	100	1555415330	-755.973	-83.692	672.891	-3.902439	1.219512	0.3658537	110	44	-144	0.09857327	-0.4239936	0.01202429	0.9002045
5	100	1555415330	-754.204	-76.189	685.335	-3.04878	2.195122	0.2439024	111	45	-144	0.09864157	-0.4233222	0.01226844	0.9005097
5	100	1555415330	-754.692	-78.08	671.915	-2.682927	2.682927	0.3658537	110	45	-144	0.0986606	-0.4235054	0.01251259	0.9004181
5	100	1555415330	-762.622	-74.054	671.366	-2.317073	2.073171	0.1219512	110	44	-145	0.09847677	-0.4239326	0.01266518	0.900235
5	100	1555415330	-757.986	-87.474	664.168	-1.95122	3.292683	0.6097561	110	44	-144	0.09850492	-0.4245125	0.01254311	0.8999603
5	100	1555415330	-762.012	-75.152	686.677	-1.829268	2.926829	0.1219512	111	46	-145	0.0987213	-0.4250313	0.01297037	0.8996857
5	100	1555415330	-761.646	-77.348	683.505	-2.073171	2.682927	0.2439024	110	44	-145	0.09842229	-0.4256722	0.01327555	0.899411
5	100	1555415330	-763.415	-77.348	669.17	-2.560976	2.317073	0.4878049	110	44	-143	0.09844833	-0.4264351	0.01339763	0.8990448
5	100	1555415330	-769.027	-79.056	684.847	-2.560976	1.585366	0.4878049	110	44	-144	0.09856964	-0.4269234	0.01333659	0.8988006
5	100	1555415330	-761.341	-80.825	658.678	-2.560976	1.097561	0.3658537	109	43	-142	0.0984135	-0.4268319	0.01330607	0.8988616
5	100	1555415330	-754.753	-76.799	661.484	-2.926829	1.829268	0.7317073	110	43	-144	0.09839988	-0.4266488	0.01309244	0.8989532
5	100	1555415330	-753.716	-76.006	674.172	-2.560976	1.341463	0.4878049	111	44	-145	0.09850945	-0.4266793	0.01336711	0.8989227
5	100	1555415330	-751.398	-77.226	672.525	-3.04878	1.463415	0.2439024	109	44	-143	0.09847254	-0.4265572	0.01342814	0.8989837
5	100	1555415330	-759.938	-82.655	672.891	-2.926829	2.439024	0.3658537	109	44	-144	0.09835474	-0.4271676	0.01327555	0.8987091
5	100	1555415330	-761.341	-81.13	679.052	-2.926829	3.04878	0	111	44	-143	0.09856843	-0.4266182	0.01281777	0.8989532
5	100	1555415330	-758.352	-84.79	683.444	-3.04878	3.292683	0	109	44	-144	0.09844016	-0.4260079	0.0126957	0.8992584
5	100	1555415330	-779.763	-77.714	676.673	-2.682927	3.780488	0.2439024	110	43	-142	0.09830686	-0.4260994	0.01281777	0.8992279
5	100	1555415330	-769.637	-78.812	674.721	-2.682927	4.268293	0.3658537	109	44	-144	0.09849766	-0.4264351	0.0130314	0.8990448
5	100	1555415330	-755.058	-75.335	666.791	-3.04878	3.658537	0.1219512	111	44	-144	0.09822315	-0.427076	0.01306192	0.8987701
5	100	1555415330	-763.049	-78.568	670.878	-3.170732	3.292683	0.1219512	109	47	-144	0.0983308	-0.4275033	0.01297037	0.8985565
5	100	1555415330	-756.4	-82.472	672.098	-3.292683	3.292683	0.2439024	110	45	-142	0.09851127	-0.4281136	0.01260414	0.8982513
5	100	1555415330	-760.548	-81.313	668.865	-3.170732	2.560976	0.2439024	112	45	-143	0.0981175	-0.4287851	0.01242103	0.8979766
5	100	1555415330	-767.319	-81.008	677.405	-3.658537	2.317073	0.2439024	110	45	-142	0.09819644	-0.4285104	0.01245155	0.8980987
5	100	1555415330	-761.402	-80.886	682.59	-3.04878	2.439024	0	110	45	-143	0.09826349	-0.4282968	0.01266518	0.8981903
5	100	1555415330	-772.626	-78.629	666.12	-3.292683	2.804878	0.2439024	111	45	-142	0.09820099	-0.4288766	0.01300089	0.8979156
5	100	1555415330	-761.951	-80.337	673.806	-2.560976	2.682927	0.3658537	110	44	-141	0.0983502	-0.4288461	0.01287881	0.8979156
5	100	1555415330	-756.583	-80.947	663.375	-3.04878	3.170732	-0.1219512	111	44	-140	0.09810808	-0.4289682	0.01278726	0.8978851
5	100	1555415330	-759.023	-80.581	663.192	-2.804878	3.658537	0.2439024	110	45	-141	0.09834777	-0.428663	0.01260414	0.8980072
5	100	1555415330	-753.289	-80.215	672.708	-3.170732	3.658537	0.1219512	110	44	-142	0.09841714	-0.4281442	0.01229896	0.8982513
5	100	1555415330	-756.095	-81.923	670.39	-3.536585	3.414634	0.2439024	109	45	-142	0.09839261	-0.427839	0.01196326	0.8984039
5	100	1555415330	-763.415	-79.361	675.209	-3.414634	3.292683	0.1219512	111	43	-140	0.09841321	-0.4279	0.01190222	0.8983734
5	100	1555415330	-766.099	-82.96	674.904	-3.414634	2.682927	0.2439024	110	46	-141	0.09822011	-0.4283883	0.01205481	0.8981597
5	100	1555415330	-768.783	-82.106	665.754	-3.292683	2.926829	0	112	45	-140	0.09818096	-0.4289071	0.01211585	0.8979156
5	100	1555415330	-769.088	-81.801	678.625	-3.170732	2.682927	0	109	46	-144	0.09835474	-0.4290597	0.01208533	0.897824
5	100	1555415330	-764.757	-80.703	665.937	-3.04878	2.804878	0.2439024	111	45	-141	0.09826471	-0.4286935	0.0122074	0.8980072
5	100	1555415330	-764.879	-80.764	650.26	-3.414634	2.682927	-0.2439024	111	45	-141	0.09829503	-0.4288766	0.01226844	0.8979156
5	100	1555415330	-766.587	-80.276	665.693	-3.414634	3.04878	-0.1219512	112	43	-140	0.09822921	-0.4293954	0.01251259	0.8976715
5	100	1555415330	-764.452	-80.032	641.354	-3.170732	2.926829	0	112	46	-142	0.09823377	-0.4300973	0.01245155	0.8973357
5	100	1555415330	-764.33	-80.459	666.303	-3.536585	2.804878	0.2439024	113	45	-143	0.09823801	-0.4309213	0.01251259	0.896939
5	100	1555415330	-762.561	-81.923	659.715	-3.292683	2.804878	0	111	44	-142	0.09798194	-0.4317454	0.01236	0.8965728
5	100	1555415330	-759.572	-87.23	664.9	-3.170732	2.317073	0.1219512	111	47	-142	0.09817975	-0.4310129	0.01199377	0.8969085
5	100	1555415330	-763.232	-80.398	665.815	-3.292683	1.95122	0.1219512	111	45	-141	0.0979789	-0.4308603	0.01226844	0.897
5	100	1555415330	-763.232	-74.664	669.658	-3.414634	1.585366	0.1219512	113	45	-140	0.09811902	-0.4301889	0.01239051	0.8973052
5	100	1555415330	-765.001	-80.459	660.508	-3.780488	1.585366	0	111	46	-141	0.09816851	-0.4304331	0.01236	0.8971831
5	100	1555415330	-763.903	-76.372	663.802	-3.780488	1.463415	0	111	46	-141	0.09802938	-0.4298227	0.01254311	0.8974884
5	100	1555415330	-763.598	-81.496	670.39	-3.658537	1.707317	0	112	45	-141	0.09803728	-0.4298227	0.01248207	0.8974884
5	100	1555415330	-763.11	-88.45	667.279	-3.536585	2.073171	0	113	45	-141	0.09803516	-0.4295175	0.01202429	0.8976409
5	100	1555415330	-768.417	-87.901	646.905	-5.365854	4.512195	0	112	45	-140	0.09777855	-0.4305551	0.01113926	0.8971831
5	100	1555415330	-765.855	-87.962	653.066	-5	4.878049	0.1219512	112	46	-138	0.0977694	-0.4327219	0.01077303	0.8961455
5	100	1555415330	-768.478	-73.566	681.736	-2.073171	3.780488	0.1219512	112	45	-142	0.0977566	-0.4316233	0.01174963	0.8966643
5	100	1555415330	-772.199	-72.346	682.895	-1.463415	0.3658537	0	112	45	-140	0.0979792	-0.4291207	0.01293985	0.897824
5	100	1555415330	-761.28	-73.81	653.615	-1.829268	1.097561	0.6097561	111	45	-142	0.09774929	-0.4297922	0.01355022	0.8975189
5	100	1555415330	-756.095	-80.703	641.659	-0.7317073	1.95122	0.2439024	112	45	-141	0.09781116	-0.4306162	0.01321451	0.8971221
5	100	1555415330	-755.546	-90.097	658.678	-1.585366	2.073171	0.1219512	113	46	-140	0.09812874	-0.4316538	0.01217689	0.8966033
5	100	1555415330	-747.921	-86.925	660.264	-1.95122	3.536585	0.1219512	113	45	-141	0.09803393	-0.4313791	0.01141392	0.8967559
5	100	1555415330	-754.814	-84.18	670.817	-2.926829	5.853659	-0.2439024	113	45	-141	0.09810413	-0.4309824	0.01141392	0.896939
5	100	1555415330	-758.291	-88.755	672.037	-4.756098	6.097561	-0.4878049	113	44	-140	0.09828503	-0.429548	0.01113926	0.8976104
5	100	1555415330	-773.114	-88.023	671.854	-5.97561	4.634147	-0.2439024	110	44	-141	0.09829079	-0.4293039	0.01065096	0.8977325
5	100	1555415330	-776.835	-84.485	662.765	-5.853659	3.658537	-0.3658537	113	45	-141	0.09801812	-0.4298837	0.01034577	0.8974884
5	100	1555415330	-778.543	-84.729	646.783	-4.146341	3.170732	-0.2439024	112	45	-138	0.09796095	-0.4320505	0.01058992	0.8964507
5	100	1555415330	-777.75	-79.544	656.604	-3.170732	3.658537	-0.1219512	114	46	-141	0.09773313	-0.4334239	0.01080355	0.8958098
5	100	1555415330	-764.33	-84.119	665.937	-2.926829	3.658537	-0.2439024	112	46	-140	0.09779348	-0.4337901	0.01074252	0.8956267
5	100	1555415330	-762.439	-88.938	653.493	-3.04878	3.780488	-0.1219512	112	45	-140	0.09790039	-0.4344615	0.01062044	0.895291
5	100	1555415330	-763.354	-83.57	666.364	-3.170732	3.780488	-0.2439024	114	47	-138	0.09794726	-0.4338206	0.01065096	0.8955962
5	100	1555415330	-758.047	-83.692	666.181	-3.04878	3.536585	0.1219512	113	46	-139	0.09802087	-0.4333018	0.0105594	0.8958403
5	100	1555415330	-764.208	-84.729	646.844	-3.414634	3.170732	0	113	45	-140	0.09797768	-0.4330576	0.01062044	0.8959624
5	100	1555415330	-759.694	-78.995	663.253	-3.536585	2.926829	0.1219512	114	45	-139	0.09798316	-0.4315928	0.01095614	0.8966643
5	100	1555415330	-749.385	-82.411	652.212	-3.780488	2.560976	0.1219512	113	46	-138	0.09784802	-0.4308603	0.01101718	0.8970305
5	100	1555415331	-761.158	-81.74	651.785	-3.658537	2.439024	0.2439024	113	45	-138	0.09799502	-0.4305857	0.01049837	0.8971526
5	100	1555415331	-751.764	-86.376	664.717	-3.292683	2.804878	0.1219512	114	45	-139	0.09810475	-0.430372	0.01040681	0.8972442
5	100	1555415331	-768.905	-87.718	671	-2.926829	2.560976	0.2439024	113	45	-139	0.09805704	-0.4307688	0.0102237	0.897061
5	100	1555415331	-781.471	-87.779	672.403	-3.04878	2.560976	0.1219512	114	46	-138	0.09793661	-0.4315622	0.01004059	0.8966948
5	100	1555415331	-763.11	-87.474	671.061	-3.170732	3.536585	0.2439024	113	47	-139	0.09788638	-0.43202	0.009918516	0.8964812
5	100	1555415331	-781.532	-86.986	654.164	-3.780488	3.780488	0.1219512	113	47	-140	0.09786324	-0.432844	0.01007111	0.8960845
5	100	1555415331	-778.482	-86.132	663.009	-4.02439	3.902439	0.4878049	113	45	-137	0.09778465	-0.4341868	0.01004059	0.8954436
5	100	1555415331	-772.077	-90.463	652.7	-2.804878	2.682927	0.3658537	114	46	-138	0.09763549	-0.4340342	0.009918516	0.8955352
5	100	1555415331	-766.77	-81.252	651.053	-2.560976	1.95122	0.6097561	113	47	-139	0.09777398	-0.4340037	0.009887997	0.8955352
5	100	1555415331	-756.583	-82.167	660.142	-2.073171	3.292683	0.2439024	112	46	-138	0.09773953	-0.4337596	0.009887997	0.8956572
5	100	1555415331	-758.108	-81.801	651.48	-2.073171	3.780488	0.2439024	113	45	-137	0.09766052	-0.4333934	0.01013215	0.8958403
5	100	1555415331	-761.646	-83.265	662.948	-2.926829	2.804878	0.2439024	114	47	-136	0.0978803	-0.4332713	0.01052889	0.8958709
5	100	1555415331	-755.119	-81.557	665.632	-4.02439	3.170732	0.2439024	114	45	-139	0.09765258	-0.4329356	0.01086459	0.896054
5	100	1555415331	-761.951	-87.535	654.164	-4.390244	3.170732	0	112	46	-139	0.09776361	-0.4325388	0.0105594	0.8962371
5	100	1555415331	-774.273	-85.217	658.007	-4.146341	3.414634	0.2439024	114	45	-137	0.09759276	-0.4330271	0.01025422	0.8960235
5	100	1555415331	-769.698	-80.337	654.774	-3.780488	3.536585	0.1219512	114	46	-137	0.09774288	-0.4331797	0.01037629	0.8959319
5	100	1555415331	-769.393	-84.607	652.822	-3.414634	3.536585	0	114	47	-136	0.09772855	-0.4338816	0.01016266	0.8955962
5	100	1555415331	-773.968	-78.019	649.65	-3.04878	4.146341	-0.2439024	114	46	-137	0.09760405	-0.4342174	0.01046785	0.8954436
5	100	1555415331	-767.136	-78.812	649.955	-2.560976	4.634147	0.2439024	115	46	-138	0.09764404	-0.4345836	0.0105594	0.8952605
5	100	1555415331	-772.26	-85.278	646.356	-2.439024	4.02439	0.2439024	114	47	-137	0.09773648	-0.4354381	0.010712	0.8948332
5	100	1555415331	-782.874	-86.315	671.183	-2.926829	3.292683	0	113	46	-138	0.09766418	-0.4358348	0.01052889	0.8946501
5	100	1555415331	-774.639	-89.731	666.425	-2.926829	2.317073	0.2439024	112	45	-138	0.09757198	-0.4359874	0.01025422	0.8945891
5	100	1555415331	-773.236	-87.108	639.768	-3.292683	2.317073	0.3658537	113	46	-135	0.09762023	-0.4367199	0.0105594	0.8942229
5	100	1555415331	-772.931	-81.13	643.062	-3.170732	1.463415	0.4878049	114	47	-135	0.09734019	-0.4372082	0.01101718	0.8940092
5	100	1555415331	-768.783	-87.23	630.191	-3.414634	1.707317	0.1219512	114	45	-136	0.09734968	-0.4372692	0.01098666	0.8939787
5	100	1555415331	-768.051	-79.666	630.496	-3.658537	2.439024	0.4878049	114	47	-138	0.09733222	-0.4370251	0.01092563	0.8941008
5	100	1555415331	-765.855	-81.191	661.301	-3.536585	2.439024	0.2439024	114	46	-136	0.09741731	-0.4362621	0.01068148	0.894467
5	100	1555415331	-769.027	-88.45	650.26	-3.536585	2.804878	0	114	47	-137	0.09733345	-0.4364147	0.01031526	0.894406
5	100	1555415331	-774.456	-79.666	672.891	-3.536585	3.536585	-0.1219512	114	47	-137	0.09744484	-0.4360179	0.01016266	0.8945891
5	100	1555415331	-774.883	-86.01	672.83	-3.658537	3.536585	0.1219512	114	46	-136	0.09741487	-0.4355296	0.009887997	0.8948332
5	100	1555415331	-782.447	-96.136	634.278	-3.536585	3.414634	-0.2439024	114	47	-137	0.09736345	-0.4362316	0.00982696	0.8944975
5	100	1555415331	-775.066	-84.302	650.687	-3.658537	3.536585	0.3658537	114	45	-136	0.09727587	-0.4365673	0.009674367	0.8943449
5	100	1555415331	-774.761	-90.28	629.52	-3.414634	3.536585	0.1219512	114	48	-136	0.09724186	-0.4373913	0.009460738	0.8939482
5	100	1555415331	-769.149	-85.644	625.982	-3.902439	3.292683	0.1219512	115	47	-135	0.09744056	-0.4376659	0.009125034	0.8937956
5	100	1555415331	-764.147	-85.888	664.961	-3.536585	3.414634	0.3658537	114	45	-136	0.09741914	-0.4372997	0.008972442	0.8939787
5	100	1555415331	-771.894	-88.938	644.343	-3.414634	2.926829	0.1219512	114	47	-136	0.0972112	-0.4379711	0.008880886	0.8936735
5	100	1555415331	-780.129	-84.79	671.244	-3.292683	3.414634	0.2439024	115	45	-137	0.09725534	-0.4383374	0.008758812	0.8934904
5	100	1555415331	-772.809	-87.352	664.595	-3.414634	3.170732	0.1219512	114	47	-136	0.09737875	-0.4380017	0.00860622	0.893643
5	100	1555415331	-778.665	-90.89	633.302	-3.414634	3.170732	0.1219512	115	47	-136	0.09724676	-0.4381543	0.008667257	0.893582
5	100	1555415331	-777.689	-82.228	648.186	-3.414634	3.170732	0.1219512	117	46	-135	0.09721673	-0.4379711	0.008819849	0.8936735
5	100	1555415331	-770.247	-90.463	632.57	-3.536585	3.170732	-0.1219512	116	46	-135	0.09736223	-0.4379406	0.008728294	0.8936735
5	100	1555415331	-768.905	-87.474	632.692	-3.658537	3.292683	0.1219512	116	49	-136	0.09720967	-0.4376049	0.008514664	0.8938566
5	100	1555415331	-761.524	-84.302	649.101	-3.414634	3.292683	0.1219512	114	49	-136	0.09720139	-0.4375439	0.008545183	0.8938872
5	100	1555415331	-778.665	-88.938	644.16	-3.658537	3.536585	0.1219512	115	46	-136	0.0971063	-0.4380017	0.008514664	0.8936735
5	100	1555415331	-785.802	-88.511	653.92	-3.658537	3.780488	0.1219512	114	47	-134	0.0969853	-0.4383984	0.008697775	0.8934904
5	100	1555415331	-769.637	-86.742	646.6	-3.780488	3.658537	0.2439024	116	47	-136	0.09706762	-0.439436	0.008697775	0.8929716
5	100	1555415331	-779.824	-89.182	636.84	-3.902439	3.780488	0.2439024	115	47	-136	0.09698254	-0.44026	0.008697775	0.8925748
5	100	1555415331	-789.706	-90.28	650.199	-3.780488	2.926829	0.1219512	116	47	-135	0.09703937	-0.4406262	0.008301035	0.8923917
5	100	1555415331	-776.286	-90.463	634.339	-3.780488	3.292683	0.3658537	117	49	-135	0.09701603	-0.440199	0.008270516	0.8926054
5	100	1555415331	-780.739	-88.694	637.511	-3.780488	3.536585	0.1219512	116	48	-134	0.096894	-0.4401685	0.008026368	0.8926359
5	100	1555415331	-770.491	-85.949	646.173	-3.658537	3.292683	0.1219512	115	48	-135	0.09698284	-0.4397717	0.008331553	0.892819
5	100	1555415331	-773.846	-87.291	638.487	-3.414634	3.04878	-0.1219512	115	47	-133	0.09697885	-0.4397107	0.008331553	0.8928495
5	100	1555415331	-786.473	-91.378	648.064	-3.780488	3.04878	0.1219512	115	48	-133	0.09688015	-0.4405347	0.008453627	0.8924528
5	100	1555415331	-773.602	-91.561	651.724	-3.780488	2.682927	0.3658537	116	48	-133	0.096886	-0.4404126	0.008301035	0.8925138
5	100	1555415331	-769.942	-96.502	643.428	-4.02439	3.658537	0.2439024	117	48	-135	0.09689892	-0.4396802	0.00756859	0.89288
5	100	1555415331	-776.835	-97.539	618.601	-6.585366	5.853659	0.1219512	115	47	-134	0.0966541	-0.4416028	0.006653035	0.8919645
5	100	1555415331	-774.334	-89.67	633.546	-5.97561	6.341464	0.2439024	117	49	-132	0.09654211	-0.4429762	0.00695822	0.891293
5	100	1555415331	-770.552	-79.788	661.24	-3.170732	5.365854	-0.1219512	115	48	-133	0.0963103	-0.4422742	0.007843257	0.8916593
5	100	1555415331	-775.249	-82.777	655.567	-2.195122	1.097561	0.1219512	116	47	-133	0.0966692	-0.4403821	0.009125034	0.8925443
5	100	1555415331	-771.04	-83.692	642.025	-2.560976	0.9756098	0.3658537	117	47	-133	0.09657976	-0.4399548	0.009765923	0.892758
5	100	1555415331	-780.739	-93.513	620.37	-1.707317	3.536585	0.4878049	115	47	-134	0.09670743	-0.4411145	0.009155553	0.8921781
5	100	1555415331	-779.397	-98.576	631.35	-2.073171	3.292683	0.2439024	116	47	-133	0.0964822	-0.4432814	0.007843257	0.8911405
5	100	1555415331	-769.881	-95.526	629.52	-2.560976	3.536585	0	118	49	-133	0.09670743	-0.4442274	0.00695822	0.8906522
5	100	1555415331	-778.177	-93.635	633.912	-3.658537	5.487805	-0.4878049	118	49	-134	0.0965597	-0.4441969	0.007049776	0.8906827
5	100	1555415331	-779.153	-90.524	650.016	-5.121951	6.097561	-0.3658537	116	48	-131	0.09680261	-0.4434034	0.007385479	0.8910489
5	100	1555415331	-777.079	-94.672	631.777	-6.585366	5	-0.4878049	117	49	-133	0.09651309	-0.442671	0.007232887	0.8914456
5	100	1555415331	-790.865	-94.794	625.128	-6.097561	3.536585	-0.4878049	117	48	-133	0.09670249	-0.4428236	0.006622517	0.8913541
5	100	1555415331	-792.329	-90.585	643.855	-5.243903	3.170732	-0.2439024	119	48	-132	0.09632608	-0.4434645	0.006164739	0.8910794
5	100	1555415331	-794.586	-98.393	633.912	-3.414634	2.682927	-0.1219512	119	48	-131	0.09664207	-0.4441359	0.005798517	0.8907132
5	100	1555415331	-793.61	-91.927	648.552	-3.414634	3.536585	-0.1219512	116	49	-132	0.0964961	-0.4450819	0.005981628	0.8902555
5	100	1555415331	-781.166	-91.927	649.101	-3.292683	4.02439	0.2439024	118	49	-132	0.09634093	-0.4457839	0.006164739	0.8899198
5	100	1555415331	-781.044	-97.234	631.533	-3.170732	4.02439	0.1219512	119	48	-132	0.09635238	-0.4461501	0.005920591	0.8897367
5	100	1555415331	-773.846	-88.816	650.199	-3.170732	3.780488	0.1219512	117	50	-133	0.09621433	-0.4456313	0.005951109	0.8900113
5	100	1555415331	-765.977	-90.768	629.215	-3.292683	3.170732	0.2439024	117	48	-131	0.09636228	-0.4445021	0.005829035	0.8905606
5	100	1555415331	-774.09	-93.696	631.045	-3.536585	2.317073	0.4878049	117	50	-133	0.09648344	-0.4431898	0.005798517	0.8912015
5	100	1555415331	-773.541	-89.609	643.123	-3.414634	1.95122	0.3658537	118	49	-133	0.09655075	-0.4417554	0.006195257	0.8919035
5	100	1555415331	-777.079	-93.513	630.13	-3.292683	1.829268	0.8536586	118	49	-131	0.0962422	-0.4412061	0.006195257	0.8922086
5	100	1555415331	-779.58	-100.65	638.792	-3.292683	1.097561	0.2439024	118	48	-130	0.09627997	-0.4415113	0.005829035	0.892056
5	100	1555415331	-784.033	-93.94	645.502	-3.292683	0.7317073	0.3658537	119	50	-131	0.09628864	-0.4418775	0.005951109	0.8918729
5	100	1555415331	-788.73	-95.77	644.526	-3.414634	1.463415	0.3658537	117	49	-133	0.09631464	-0.4420606	0.005645924	0.8917814
5	100	1555415331	-789.523	-102.175	644.465	-3.292683	1.463415	0.3658537	118	49	-132	0.09622362	-0.4426405	0.00512711	0.8915067
5	100	1555415331	-787.998	-97.051	641.476	-3.292683	2.317073	0.3658537	118	48	-132	0.09625799	-0.4431288	0.004730369	0.8912625
5	100	1555415331	-793.793	-97.234	622.627	-3.902439	2.439024	0.7317073	118	49	-132	0.09614926	-0.44438	0.004516739	0.8906522
5	100	1555415331	-797.27	-91.378	635.376	-3.292683	1.95122	0.4878049	118	47	-131	0.09601713	-0.445143	0.004394665	0.890286
5	100	1555415331	-783.423	-94.55	640.622	-3.292683	0.9756098	0.4878049	118	49	-134	0.09586554	-0.4450514	0.004608295	0.890347
5	100	1555415331	-775.676	-96.319	632.021	-2.560976	2.439024	0.4878049	118	48	-132	0.09587114	-0.4453566	0.004486221	0.8901944
5	100	1555415331	-778.726	-92.171	648.857	-2.560976	2.317073	0.3658537	118	50	-131	0.095836	-0.4441359	0.005066073	0.8908048
5	100	1555415331	-771.772	-94.916	655.018	-3.170732	2.317073	0.4878049	120	49	-132	0.09607298	-0.4426099	0.005279702	0.8915372
5	100	1555415331	-785.619	-92.842	629.093	-3.902439	2.682927	0.2439024	118	48	-131	0.09588792	-0.4419691	0.005615406	0.8918729
5	100	1555415331	-782.386	-90.036	631.35	-4.634147	3.292683	0	117	48	-132	0.09588233	-0.4419691	0.005706961	0.8918729
5	100	1555415331	-767.99	-94.733	604.51	-4.268293	2.804878	0	119	50	-131	0.09580366	-0.4431593	0.005310221	0.891293
5	100	1555415331	-784.643	-95.16	617.259	-3.536585	3.170732	0	118	48	-132	0.09569658	-0.4443495	0.005066073	0.8907132
5	100	1555415331	-771.65	-91.317	644.404	-3.536585	2.926829	0	118	49	-131	0.09555166	-0.44438	0.00512711	0.8907132
5	100	1555415331	-783.301	-98.149	639.402	-3.658537	3.292683	0	118	49	-131	0.09570064	-0.4446547	0.005035554	0.8905606
5	100	1555415331	-787.571	-91.988	651.602	-2.439024	4.146341	0	119	50	-133	0.09568413	-0.4444105	0.005310221	0.8906827
5	100	1555415331	-781.105	-96.99	645.868	-2.804878	4.02439	0.2439024	118	48	-129	0.09566824	-0.445143	0.005645924	0.8903165
5	100	1555415331	-784.094	-99.674	628.3	-2.926829	4.02439	0.2439024	118	49	-132	0.09567852	-0.4460585	0.005371258	0.8898587
5	100	1555415331	-792.39	-92.232	632.936	-2.804878	3.658537	0.2439024	118	51	-130	0.09552047	-0.4467604	0.005462813	0.889523
5	100	1555415332	-788.791	-95.526	636.718	-2.804878	2.682927	0.3658537	118	49	-138	0.09550736	-0.4466994	0.005706961	0.8895535
5	100	1555415332	-783.301	-94.306	621.102	-2.804878	2.195122	0.3658537	119	50	-128	0.09565672	-0.446852	0.00552385	0.8894619
5	100	1555415332	-786.534	-87.474	630.13	-2.926829	2.317073	0.2439024	119	49	-130	0.09563615	-0.4470351	0.005798517	0.8893704
5	100	1555415332	-776.469	-91.073	635.559	-3.414634	2.195122	0.3658537	120	50	-130	0.0953384	-0.4469741	0.006042665	0.8894314
5	100	1555415332	-780.251	-94.245	632.082	-3.292683	2.560976	0.1219512	118	49	-130	0.09534372	-0.4469131	0.005981628	0.8894619
5	100	1555415332	-786.839	-94.733	643.672	-3.292683	3.04878	0.1219512	119	50	-133	0.09552577	-0.445906	0.005584887	0.8899503
5	100	1555415332	-784.826	-96.075	642.879	-3.536585	3.292683	0.1219512	120	50	-129	0.0955501	-0.4454176	0.005218665	0.8901944
5	100	1555415332	-790.255	-96.99	627.08	-3.780488	3.292683	0.3658537	119	50	-129	0.09540371	-0.4455092	0.005279702	0.8901639
5	100	1555415332	-792.024	-93.391	628.788	-3.536585	3.170732	0.2439024	119	50	-129	0.09539808	-0.4458754	0.005340739	0.8899808
5	100	1555415332	-782.996	-100.467	624.762	-3.780488	3.414634	0.2439024	118	50	-129	0.09539746	-0.4467299	0.00512711	0.8895535
5	100	1555415332	-784.338	-95.77	632.204	-2.804878	3.536585	0	121	49	-131	0.09526773	-0.4470657	0.004730369	0.8894009
5	100	1555415332	-781.166	-95.038	637.511	-3.292683	3.414634	0.2439024	118	50	-131	0.09555229	-0.4468825	0.004821924	0.8894619
5	100	1555415332	-786.656	-92.598	632.082	-3.902439	3.902439	0.1219512	119	49	-130	0.09527336	-0.4468215	0.004730369	0.889523
5	100	1555415332	-786.839	-96.136	637.816	-3.902439	4.756098	-0.1219512	119	49	-129	0.0952865	-0.4466994	0.004516739	0.889584
5	100	1555415332	-782.447	-96.929	630.069	-3.780488	3.902439	0.3658537	122	50	-135	0.09540059	-0.4478286	0.004455702	0.8890042
5	100	1555415332	-785.863	-102.663	627.934	-3.780488	3.536585	0	120	51	-128	0.09538902	-0.448561	0.004058962	0.888638
5	100	1555415332	-785.863	-97.173	631.594	-3.780488	3.658537	-0.1219512	120	48	-129	0.09506292	-0.4492935	0.004181036	0.8883023
5	100	1555415332	-784.826	-94.184	628.605	-3.902439	2.926829	-0.1219512	121	50	-129	0.09507796	-0.4491104	0.004058962	0.8883938
5	100	1555415332	-789.401	-95.343	617.625	-4.02439	2.073171	0.1219512	121	50	-129	0.09521922	-0.4490799	0.004119999	0.8883938
5	100	1555415332	-785.009	-95.404	632.692	-3.902439	2.317073	0.2439024	119	49	-129	0.09510523	-0.4482559	0.004333628	0.8888211
5	100	1555415332	-785.863	-96.258	625.738	-4.146341	2.804878	0.1219512	120	50	-129	0.09497353	-0.4480422	0.004272591	0.8889431
5	100	1555415332	-789.523	-99.43	627.324	-4.268293	3.04878	0.3658537	122	52	-130	0.09510962	-0.4483169	0.004181036	0.8887905
5	100	1555415332	-790.743	-97.478	633.058	-4.146341	3.658537	0.2439024	121	51	-129	0.09509113	-0.4489273	0.003967406	0.8884854
5	100	1555415332	-792.634	-106.018	632.021	-3.902439	4.02439	0.4878049	120	51	-128	0.09509959	-0.4490494	0.003601184	0.8884243
5	100	1555415332	-796.782	-101.016	607.682	-4.02439	3.780488	-0.1219512	120	51	-129	0.09489191	-0.4501785	0.003570666	0.887875
5	100	1555415332	-787.388	-93.574	624.579	-3.780488	3.780488	0.1219512	121	51	-125	0.09474009	-0.4502091	0.003753777	0.887875
5	100	1555415332	-785.375	-98.759	610.183	-3.902439	3.536585	0.1219512	120	52	-128	0.09487086	-0.4504227	0.00369274	0.887753
5	100	1555415332	-787.022	-103.578	618.662	-4.268293	2.560976	0	119	51	-128	0.09462395	-0.4501175	0.003173925	0.8879361
5	100	1555415332	-789.462	-94.001	640.012	-4.02439	2.560976	0.3658537	120	51	-127	0.09466834	-0.4495071	0.002960295	0.8882412
5	100	1555415332	-797.88	-98.881	621.224	-4.634147	2.195122	0.2439024	121	50	-126	0.09481178	-0.4495376	0.002899258	0.8882107
5	100	1555415332	-784.643	-102.724	646.966	-4.390244	2.682927	0.3658537	121	50	-127	0.09469887	-0.449263	0.002349925	0.8883633
5	100	1555415332	-787.205	-106.14	622.932	-6.219512	4.512195	-0.1219512	122	52	-128	0.09446381	-0.4509415	0.001556444	0.8875393
5	100	1555415332	-793.793	-104.066	609.268	-6.463415	4.512195	0	121	51	-127	0.09429771	-0.4528947	0.0009460738	0.8865627
5	100	1555415332	-800.259	-95.16	655.262	-3.658537	5.243903	0.1219512	122	52	-128	0.09448936	-0.4523759	0.00122074	0.8868068
5	100	1555415332	-785.558	-91.805	636.169	-2.073171	1.707317	0.2439024	118	52	-128	0.09421899	-0.450087	0.002380444	0.8879971
5	100	1555415332	-802.516	-89.792	615.978	-2.195122	0.4878049	0.6097561	121	51	-127	0.09423512	-0.4492325	0.00347911	0.8884243
5	100	1555415332	-785.558	-101.321	619.638	-1.707317	3.170732	0.7317073	121	52	-127	0.09431383	-0.4502396	0.003601184	0.8879055
5	100	1555415332	-775.127	-107.665	591.212	-0.8536586	4.02439	0.2439024	122	51	-126	0.09429266	-0.4525284	0.002960295	0.8867458
5	100	1555415332	-781.288	-106.994	626.714	-1.707317	2.804878	0.6097561	120	52	-127	0.09431067	-0.4539018	0.002197333	0.8860439
5	100	1555415332	-771.406	-95.648	633.302	-3.04878	3.536585	0.3658537	122	53	-126	0.09415285	-0.4540544	0.00204474	0.8859829
5	100	1555415332	-788.73	-100.711	626.104	-4.390244	4.512195	0.1219512	122	52	-126	0.09429708	-0.4527116	0.002136296	0.8866543
5	100	1555415332	-789.218	-97.173	636.535	-5.97561	4.02439	0.1219512	121	50	-126	0.09442563	-0.4512467	0.00225837	0.8873867
5	100	1555415332	-796.599	-99.43	615.856	-6.219512	3.536585	-0.1219512	120	53	-125	0.09429013	-0.4512772	0.001770074	0.8873867
5	100	1555415332	-810.995	-101.504	614.27	-4.146341	2.926829	0	122	51	-125	0.09415475	-0.4512467	0.00143437	0.8874172
5	100	1555415332	-803.004	-96.075	627.446	-2.317073	3.04878	-0.3658537	122	53	-127	0.09419273	-0.4524369	0.001495407	0.8868068
5	100	1555415332	-796.172	-98.454	627.446	-2.439024	4.390244	-0.2439024	122	52	-127	0.09421171	-0.4535661	0.001922666	0.886227
5	100	1555415332	-797.27	-102.48	632.326	-2.926829	5	-0.2439024	123	52	-126	0.09401443	-0.4540239	0.001983703	0.8860134
5	100	1555415332	-786.595	-99.064	633.485	-3.536585	5.121951	0.4878049	122	51	-125	0.09404961	-0.4548479	0.002319407	0.8855861
5	100	1555415332	-791.231	-100.833	613.233	-3.04878	3.658537	0.4878049	122	52	-127	0.09416457	-0.4550615	0.002349925	0.885464
5	100	1555415332	-792.39	-92.842	635.376	-3.170732	3.414634	0.4878049	122	52	-125	0.09391008	-0.4547563	0.002594073	0.8856471
5	100	1555415332	-779.092	-97.722	615.673	-3.536585	2.560976	0.3658537	120	52	-126	0.09406038	-0.4534745	0.00265511	0.886288
5	100	1555415332	-789.157	-97.966	620.98	-3.414634	2.073171	0.3658537	123	52	-125	0.09409016	-0.451796	0.002349925	0.8871425
5	100	1555415332	-780.007	-95.282	626.958	-3.414634	2.195122	0.1219512	122	51	-126	0.09412879	-0.4513077	0.002441481	0.8873867
5	100	1555415332	-786.168	-102.175	618.967	-3.414634	2.317073	0.2439024	122	53	-126	0.09396084	-0.4516434	0.002288888	0.8872341
5	100	1555415332	-800.747	-99.064	626.226	-3.170732	1.95122	-0.1219512	122	51	-125	0.09401665	-0.4525895	0.002349925	0.8867458
5	100	1555415332	-796.05	-98.942	627.812	-3.170732	2.195122	0	122	51	-127	0.09406672	-0.4534745	0.002410962	0.886288
5	100	1555415332	-804.346	-102.724	620.98	-3.170732	2.317073	0.2439024	122	50	-126	0.09394942	-0.4545121	0.00225837	0.8857692
5	100	1555415332	-812.215	-100.223	627.873	-3.292683	2.804878	-0.1219512	122	51	-127	0.09372012	-0.4552141	0.00204474	0.8854335
5	100	1555415332	-799.161	-106.384	608.658	-3.170732	3.414634	0.6097561	122	51	-126	0.09369531	-0.4554582	0.001617481	0.8853114
5	100	1555415332	-810.507	-105.896	617.015	-2.804878	3.536585	0.2439024	122	52	-125	0.09379131	-0.455855	0.001159703	0.8850978
5	100	1555415332	-795.562	-100.528	622.383	-2.682927	2.195122	0.6097561	122	52	-127	0.09385866	-0.4553667	0.001190222	0.8853419
5	100	1555415332	-787.144	-100.528	606.035	-2.682927	3.414634	0.2439024	122	52	-126	0.09404676	-0.455031	0.001190222	0.8854945
5	100	1555415332	-794.037	-98.515	635.193	-2.317073	3.292683	0.2439024	123	53	-127	0.09405024	-0.4549699	0.001525925	0.885525
5	100	1555415332	-783.789	-95.16	629.825	-2.926829	3.414634	0.4878049	122	52	-125	0.093818	-0.4544206	0.002197333	0.8858303
5	100	1555415332	-791.78	-101.626	622.993	-3.780488	3.04878	0.3658537	124	52	-125	0.09389104	-0.4538102	0.002166814	0.8861355
5	100	1555415332	-795.196	-103.273	621.773	-4.146341	3.902439	0	122	53	-124	0.09365968	-0.4545732	0.001983703	0.8857692
5	100	1555415332	-788.608	-99.613	603.351	-3.658537	4.02439	0	123	52	-125	0.09383515	-0.4543596	0.001739555	0.8858608
5	100	1555415332	-799.71	-108.458	611.586	-3.170732	4.268293	-0.1219512	123	54	-123	0.09373251	-0.4540849	0.001190222	0.8860134
5	100	1555415332	-788.791	-106.872	623.542	-3.658537	4.268293	0.1219512	124	53	-127	0.09373029	-0.4541459	0.0006714072	0.8859829
5	100	1555415332	-791.963	-105.042	624.823	-3.292683	4.390244	-0.1219512	124	52	-124	0.09394244	-0.4535661	0.0004882962	0.8862575
5	100	1555415332	-800.747	-103.7	639.036	-3.170732	4.756098	0.1219512	123	51	-128	0.09379513	-0.4535966	0.0004577776	0.8862575
5	100	1555415332	-799.893	-97.966	635.01	-2.682927	4.146341	0.1219512	123	52	-123	0.09366667	-0.4546342	0.001129185	0.8857387
5	100	1555415332	-807.274	-104.737	613.66	-3.414634	3.414634	0.4878049	125	52	-124	0.09382531	-0.4556108	0.001159703	0.8852199
5	100	1555415332	-802.089	-104.005	605.486	-3.04878	2.682927	0.3658537	123	51	-124	0.09361766	-0.4570147	0.001129185	0.884518
5	100	1555415332	-793.732	-105.896	591.578	-3.170732	2.682927	0.1219512	124	52	-122	0.09343603	-0.4581133	0.001129185	0.8839687
5	100	1555415332	-794.037	-102.785	595.116	-3.292683	2.926829	0.3658537	124	52	-125	0.09341945	-0.4582354	0.0006714072	0.8839076
5	100	1555415332	-793.427	-97.173	618.052	-3.292683	2.926829	0.1219512	123	52	-123	0.0934405	-0.4581133	0.0006714072	0.8839687
5	100	1555415332	-796.599	-103.456	620.858	-2.926829	2.560976	0.2439024	122	53	-124	0.09353263	-0.457564	0.0007629627	0.8842433
5	100	1555415332	-797.697	-98.698	637.267	-3.414634	2.073171	0.3658537	124	52	-123	0.09349948	-0.4568621	0.0009460738	0.8846095
5	100	1555415332	-797.27	-99.491	628.361	-3.170732	2.317073	0.1219512	123	50	-122	0.09340796	-0.4574114	0.001251259	0.8843349
5	100	1555415332	-809.653	-106.872	615.612	-3.536585	2.804878	0.1219512	124	52	-123	0.09323552	-0.457564	0.00143437	0.8842738
5	100	1555415332	-803.309	-99.247	610.305	-3.170732	3.04878	0.2439024	123	53	-121	0.09317124	-0.4579302	0.001617481	0.8840907
5	100	1555415332	-798.063	-103.883	591.578	-3.292683	3.170732	0.1219512	124	51	-125	0.09323839	-0.458388	0.001495407	0.8838466
5	100	1555415332	-800.198	-106.872	601.765	-3.414634	3.658537	0.1219512	124	53	-123	0.09329782	-0.4580828	0.001068148	0.8839992
5	100	1555415332	-794.586	-104.249	619.15	-3.414634	3.902439	-0.1219512	123	52	-132	0.09337222	-0.4576556	0.0008239998	0.8842128
5	100	1555415332	-791.231	-104.249	600.057	-3.658537	3.658537	-0.2439024	124	52	-122	0.09327929	-0.4582049	0.0007934812	0.8839381
5	100	1555415332	-806.237	-102.48	627.263	-4.02439	3.292683	0.2439024	123	52	-121	0.09336392	-0.4585406	0.0009155553	0.883755
5	100	1555415332	-793.122	-102.48	630.923	-3.658537	3.04878	-0.1219512	123	51	-123	0.09314597	-0.4589373	0.001037629	0.8835719
5	100	1555415332	-801.113	-101.87	608.719	-3.536585	2.804878	-0.2439024	124	53	-122	0.09340253	-0.4591205	0.0009155553	0.8834498
5	100	1555415332	-798.551	-101.443	613.477	-3.170732	3.04878	-0.2439024	124	54	-122	0.09314597	-0.4589373	0.001037629	0.8835719
5	100	1555415332	-791.475	-98.027	614.636	-3.658537	2.926829	-0.1219512	125	53	-122	0.09330868	-0.4580218	0.001007111	0.8840297
5	100	1555415332	-794.342	-102.175	611.464	-3.902439	3.414634	0	125	53	-123	0.09337062	-0.4576556	0.001007111	0.8842128
5	100	1555415332	-805.017	-97.112	613.538	-3.902439	3.414634	-0.3658537	124	53	-122	0.093286	-0.4581439	0.001159703	0.8839687
5	100	1555415332	-801.174	-103.7	617.259	-3.902439	3.658537	-0.2439024	124	54	-120	0.09310308	-0.4583575	0.00122074	0.8838771
5	100	1555415332	-806.42	-104.127	604.51	-3.658537	4.146341	0	125	52	-122	0.09331922	-0.4595477	0.001129185	0.8832362
5	100	1555415332	-799.71	-102.724	614.026	-3.902439	4.02439	0	125	54	-122	0.09303584	-0.4602496	0.001159703	0.8829005
5	100	1555415332	-793.976	-104.127	609.817	-3.658537	3.658537	0	124	54	-120	0.09295155	-0.4606769	0.0008545183	0.8826869
5	100	1555415332	-796.66	-104.188	611.281	-3.292683	4.512195	0.1219512	125	52	-120	0.0930794	-0.4607685	0.0005188147	0.8826258
5	100	1555415332	-796.355	-108.824	609.268	-3.292683	4.02439	0.2439024	126	56	-125	0.0932061	-0.4601581	0.0002136296	0.882931
5	100	1555415332	-800.137	-108.214	606.828	-3.658537	3.292683	0.3658537	124	52	-121	0.09329016	-0.4597308	-0.0002746666	0.8831446
5	100	1555415332	-802.028	-103.883	604.876	-3.658537	2.439024	0.3658537	125	54	-123	0.09334349	-0.4601886	-0.0004882962	0.8829005
5	100	1555415332	-798.246	-103.822	613.477	-3.658537	2.560976	0.1219512	126	53	-121	0.09312805	-0.4598224	-0.0001831111	0.8831141
5	100	1555415332	-803.736	-109.19	613.66	-4.02439	3.292683	0.3658537	125	53	-120	0.09316772	-0.4603412	-0.0005493332	0.8828394
5	100	1555415332	-800.625	-108.58	614.697	-3.902439	4.268293	0.2439024	124	52	-121	0.09291115	-0.4601581	-0.001037629	0.8829615
5	100	1555415332	-801.052	-116.449	598.41	-4.390244	5.731708	0.2439024	126	53	-121	0.09304609	-0.4601276	-0.002014222	0.8829615
5	100	1555415332	-809.165	-109.007	594.994	-6.097561	6.95122	-0.2439024	124	55	-120	0.09297239	-0.4611347	-0.002410962	0.8824427
5	100	1555415332	-796.904	-107.238	605.364	-3.902439	7.073171	-0.1219512	125	54	-121	0.09287521	-0.4615619	-0.002563555	0.8822291
5	100	1555415332	-816.973	-104.005	614.209	-2.195122	4.02439	0.2439024	125	53	-120	0.09281904	-0.4612262	-0.001922666	0.8824122
5	100	1555415332	-808.311	-105.042	607.926	-2.439024	1.097561	0.3658537	126	54	-121	0.09294995	-0.4606769	-0.001007111	0.8826869
5	100	1555415332	-808.555	-103.944	601.643	-2.195122	2.560976	0.6097561	126	54	-118	0.09297688	-0.4612567	-0.0002746666	0.8823817
5	100	1555415332	-803.431	-114.192	582.55	-0.8536586	4.02439	0.7317073	128	52	-118	0.09278532	-0.463332	-0.0009155553	0.8813135
5	100	1555415332	-790.377	-107.848	586.454	-1.585366	3.292683	0.7317073	125	54	-120	0.09273424	-0.4651936	-0.001464888	0.8803369
5	100	1555415333	-787.937	-101.87	595.848	-2.560976	3.04878	0.3658537	126	53	-119	0.09271495	-0.4652547	-0.001617481	0.8803064
5	100	1555415333	-790.987	-99.43	609.939	-3.292683	4.756098	0.1219512	124	53	-118	0.09288388	-0.4646443	-0.001190222	0.8806116
5	100	1555415333	-791.536	-109.007	598.654	-4.756098	5	-0.1219512	125	53	-116	0.09284408	-0.4630879	-0.0009765923	0.8814356
5	100	1555415333	-807.884	-105.042	598.837	-5.97561	3.902439	0	125	54	-117	0.09286109	-0.4623859	-0.001312296	0.8818018
5	100	1555415333	-819.657	-107.909	604.937	-4.634147	3.292683	0	124	54	-118	0.09263681	-0.4633015	-0.001709037	0.881344
5	100	1555415333	-823.683	-110.471	595.482	-3.04878	3.04878	-0.1219512	126	54	-119	0.09252801	-0.4643086	-0.001739555	0.8808252
5	100	1555415333	-826.428	-104.005	616.588	-2.439024	3.170732	0	125	53	-119	0.09254766	-0.4653462	-0.001464888	0.8802759
5	100	1555415333	-819.779	-109.556	619.638	-2.317073	4.146341	0.2439024	126	54	-118	0.09252994	-0.4664449	-0.001525925	0.879696
5	100	1555415333	-811.361	-109.068	590.358	-2.317073	4.512195	0.3658537	126	53	-115	0.09266158	-0.4669942	-0.001403851	0.8793908
5	100	1555415333	-803.248	-106.689	596.702	-2.439024	4.02439	0.3658537	126	53	-119	0.09261847	-0.4666585	-0.001159703	0.8795739
5	100	1555415333	-793.671	-105.835	582.977	-3.170732	3.902439	0.8536586	125	56	-118	0.09245197	-0.4662313	-0.001098666	0.8798181
5	100	1555415333	-798.002	-106.689	584.136	-3.04878	3.170732	0.4878049	126	55	-118	0.09253348	-0.4654073	-0.001281777	0.8802454
5	100	1555415333	-792.329	-101.931	624.457	-3.04878	2.195122	0.6097561	127	55	-117	0.09246099	-0.4640339	-0.001251259	0.8809778
5	100	1555415333	-800.015	-111.935	604.449	-3.536585	1.829268	0.7317073	124	53	-118	0.09270081	-0.4636372	-0.001586962	0.8811609
5	100	1555415333	-812.154	-106.933	626.104	-3.292683	1.341463	0.7317073	127	54	-117	0.09261847	-0.4633625	-0.001861629	0.8813135
5	100	1555415333	-808.067	-109.861	629.886	-3.170732	1.585366	0.2439024	127	52	-119	0.09255248	-0.4630268	-0.001983703	0.8814966
5	100	1555415333	-821.365	-108.641	580.72	-2.804878	1.95122	0.4878049	127	54	-116	0.09239134	-0.4636982	-0.001800592	0.8811609
5	100	1555415333	-818.803	-104.066	609.695	-2.682927	1.707317	0.2439024	127	54	-117	0.09246099	-0.4640339	-0.001251259	0.8809778
5	100	1555415333	-807.152	-108.214	577.67	-2.804878	2.317073	0.4878049	126	53	-116	0.09244262	-0.4646748	-0.001068148	0.8806421
5	100	1555415333	-817.095	-102.907	585.234	-3.536585	2.926829	0.7317073	126	54	-117	0.09224834	-0.4659261	-0.0009460738	0.8800012
5	100	1555415333	-813.008	-108.946	603.412	-2.560976	2.439024	0.6097561	126	52	-117	0.09230905	-0.4667196	-0.001251259	0.8795739
5	100	1555415333	-817.461	-112.606	594.75	-2.073171	1.585366	0.8536586	125	54	-119	0.09234101	-0.4675741	-0.001525925	0.8791162
5	100	1555415333	-803.675	-104.432	597.434	-1.707317	3.170732	0.8536586	126	53	-116	0.09235424	-0.4670553	-0.001342814	0.8793908
5	100	1555415333	-799.405	-104.737	611.952	-1.707317	2.317073	0.6097561	126	54	-116	0.09224575	-0.4654073	-0.001068148	0.8802759
5	100	1555415333	-809.958	-102.48	618.906	-2.439024	1.829268	0.7317073	126	56	-118	0.09220213	-0.4644917	-0.0007934812	0.8807642
5	100	1555415333	-796.721	-105.591	582.672	-3.536585	2.439024	0.8536586	126	53	-116	0.09242198	-0.4636372	-0.0006408887	0.8811914
5	100	1555415333	-800.137	-103.029	594.079	-3.780488	3.658537	0.7317073	127	53	-117	0.09228063	-0.4630268	-0.0006103702	0.8815271
5	100	1555415333	-798.978	-102.968	598.044	-2.560976	3.292683	0.4878049	127	54	-117	0.09229743	-0.4635457	-0.0008239998	0.8812525
5	100	1555415333	-806.725	-105.896	598.41	-2.317073	3.414634	0.4878049	129	53	-114	0.09231292	-0.4640644	-0.0007934812	0.8809778
5	100	1555415333	-806.115	-105.957	605.852	-2.073171	3.04878	0.2439024	127	54	-116	0.09217109	-0.4646138	-0.0006714072	0.8807032
5	100	1555415333	-815.143	-102.907	606.279	-1.585366	4.146341	0.1219512	127	54	-117	0.09214037	-0.4647359	-0.0004272591	0.8806421
5	100	1555415333	-811.605	-105.164	606.706	-1.219512	5	0.4878049	127	55	-115	0.09222119	-0.4644307	-9.155553E-05	0.8807947
5	100	1555415333	-821.06	-104.798	599.874	-1.585366	5	0.6097561	127	53	-118	0.09221376	-0.4650105	0.000122074	0.8804895
5	100	1555415333	-817.827	-105.896	595.909	-1.707317	5.121951	0.3658537	128	55	-116	0.09211352	-0.4653768	0.0003967406	0.8803064
5	100	1555415333	-803.614	-102.663	577.792	-1.707317	4.634147	0.3658537	126	54	-116	0.09233423	-0.4666585	0.0004577776	0.8796045
5	100	1555415333	-809.897	-104.493	577.06	-1.585366	4.634147	0.8536586	126	53	-115	0.09231551	-0.4676962	0.0004882962	0.8790551
5	100	1555415333	-799.283	-104.798	596.641	-1.829268	4.878049	0.4878049	127	52	-113	0.09237102	-0.4675131	0.0004882962	0.8791467
5	100	1555415333	-808.372	-107.543	594.994	-1.219512	3.780488	0.6097561	127	54	-115	0.09216204	-0.4677267	0.000122074	0.8790551
5	100	1555415333	-814.472	-103.09	597.556	-1.585366	4.268293	0.7317073	128	54	-115	0.09251287	-0.4680013	0.0002746666	0.878872
5	100	1555415333	-811.3	-103.578	605.303	-1.95122	3.780488	0.4878049	127	52	-114	0.0924136	-0.4678487	0.0005493332	0.8789636
5	100	1555415333	-818.071	-104.005	593.164	-1.707317	4.02439	0.4878049	128	53	-114	0.0925483	-0.4678793	0.0006714072	0.8789331
5	100	1555415333	-810.019	-101.504	597.434	-1.95122	4.634147	0.3658537	127	54	-112	0.09217206	-0.4676656	0.001251259	0.8790857
5	100	1555415333	-807.518	-103.212	589.504	-2.195122	4.878049	0.1219512	127	53	-112	0.09247679	-0.4676046	0.001525925	0.8790857
5	100	1555415333	-813.618	-104.493	592.249	-2.195122	4.878049	-0.1219512	128	53	-112	0.09240392	-0.4678487	0.00143437	0.8789636
5	100	1555415333	-809.653	-102.175	595.726	-2.073171	4.268293	0.2439024	128	54	-114	0.0923494	-0.4680319	0.001312296	0.878872
5	100	1555415333	-813.496	-104.92	592.005	-2.682927	4.756098	0.1219512	129	54	-114	0.09258339	-0.4691305	0.001129185	0.8782617
5	100	1555415333	-818.925	-104.066	595.116	-2.560976	4.512195	0.2439024	126	54	-112	0.09232326	-0.469924	0.001037629	0.8778649
5	100	1555415333	-816.546	-104.92	595.97	-2.439024	3.780488	0.2439024	126	54	-113	0.09236328	-0.4698019	0.001129185	0.8779259
5	100	1555415333	-815.265	-105.408	588.223	-3.170732	3.902439	0.2439024	128	53	-111	0.0922829	-0.4700461	0.0009460738	0.8778039
5	100	1555415333	-811.361	-98.881	593.774	-3.170732	3.292683	0	128	54	-113	0.0924136	-0.4700766	0.001281777	0.8777733
5	100	1555415333	-808.982	-104.005	586.332	-3.414634	3.292683	-0.1219512	128	53	-113	0.09248548	-0.4702902	0.001312296	0.8776513
5	100	1555415333	-807.274	-96.868	590.236	-3.170732	3.04878	0.2439024	129	54	-114	0.09241198	-0.4700766	0.001403851	0.8777733
5	100	1555415333	-810.995	-102.663	594.14	-3.170732	3.658537	-0.2439024	129	55	-112	0.09235843	-0.4698019	0.001464888	0.8779259
5	100	1555415333	-818.132	-103.578	586.515	-3.658537	3.780488	0.1219512	129	55	-112	0.0924423	-0.4704123	0.00143437	0.8775902
5	100	1555415333	-819.291	-100.711	595.726	-3.414634	4.02439	0	129	53	-111	0.09255603	-0.4705039	0.001403851	0.8775292
5	100	1555415333	-817.217	-109.495	597.861	-3.292683	4.634147	0	129	53	-111	0.09237263	-0.4701987	0.001281777	0.8777123
5	100	1555415333	-817.461	-106.567	584.075	-3.414634	4.878049	-0.1219512	129	52	-111	0.09239651	-0.4713889	0.001037629	0.8770714
5	100	1555415333	-818.986	-102.663	593.469	-3.902439	3.780488	0	130	53	-111	0.09244713	-0.4720603	0.0007019257	0.8767052
5	100	1555415333	-820.389	-109.068	580.049	-3.658537	3.780488	0.2439024	128	54	-112	0.09231486	-0.4724265	0.0003051851	0.8765221
5	100	1555415333	-815.143	-100.162	583.343	-3.292683	3.292683	0.1219512	130	54	-110	0.09228322	-0.4732811	0.0002746666	0.8760644
5	100	1555415333	-816.058	-94.977	596.031	-3.414634	3.04878	0.1219512	128	54	-112	0.09205558	-0.4730979	0.00122074	0.8761864
5	100	1555415333	-813.862	-106.75	585.783	-3.536585	3.170732	0.3658537	129	53	-111	0.09221344	-0.4730674	0.001129185	0.8761864
5	100	1555415333	-815.753	-102.358	595.238	-3.658537	3.292683	0.1219512	130	54	-109	0.09217691	-0.472396	0.0009460738	0.8765526
5	100	1555415333	-812.886	-113.704	600.911	-3.536585	3.658537	0.1219512	131	54	-109	0.09220148	-0.4715415	0.0004577776	0.8770104
5	100	1555415333	-819.779	-110.776	589.504	-3.780488	3.780488	0.2439024	129	55	-112	0.09211449	-0.4717856	0.0003051851	0.8768883
5	100	1555415333	-822.219	-107.482	597.617	-3.902439	3.170732	0.1219512	130	55	-110	0.0921588	-0.4716636	-0.000122074	0.8769494
5	100	1555415333	-810.873	-111.203	570.472	-3.902439	5.487805	0.1219512	129	54	-110	0.09222054	-0.4726707	-0.0008545183	0.8764001
5	100	1555415333	-812.398	-108.519	583.16	-4.878049	6.95122	0.1219512	130	55	-111	0.0921727	-0.4727927	-0.001068148	0.876339
5	100	1555415333	-809.104	-103.395	553.331	-6.707317	7.804878	-0.1219512	131	55	-109	0.09198401	-0.4732811	-0.001312296	0.8760949
5	100	1555415333	-820.206	-97.844	605.852	-4.02439	6.341464	0	130	54	-109	0.09169943	-0.4732811	-0.0007629627	0.8761254
5	100	1555415333	-821.487	-94.001	624.152	-2.073171	4.02439	0.3658537	130	54	-109	0.09184491	-0.4721213	0.0006408887	0.8767357
5	100	1555415333	-826.062	-101.992	581.452	-2.560976	2.560976	-0.1219512	130	55	-107	0.09181798	-0.4725791	0.0009460738	0.8764916
5	100	1555415333	-824.171	-110.288	588.406	-2.317073	3.04878	0.4878049	132	55	-108	0.09178519	-0.4734336	0.0008545183	0.8760338
5	100	1555415333	-826.062	-115.656	563.457	-1.463415	5.609756	0.2439024	130	54	-109	0.09188287	-0.4753868	-3.051851E-05	0.8749657
5	100	1555415333	-810.873	-112.728	550.098	-1.829268	5.853659	0.2439024	129	54	-109	0.09180596	-0.4775842	-0.001251259	0.8737754
5	100	1555415333	-810.507	-102.785	576.267	-3.292683	5.487805	0	133	55	-109	0.09196489	-0.4775536	-0.00122074	0.8737754
5	100	1555415333	-810.263	-107.665	571.692	-4.02439	6.707317	0	131	55	-108	0.09194156	-0.4769433	-0.001251259	0.8741112
5	100	1555415333	-822.158	-104.31	600.667	-5.731708	6.585366	0	130	52	-108	0.09194156	-0.4766076	-0.00122074	0.8742943
5	100	1555415333	-820.389	-105.347	598.41	-6.341464	6.219512	-0.2439024	131	55	-107	0.09178454	-0.4766381	-0.001129185	0.8742943
5	100	1555415333	-843.874	-112.179	584.075	-5.731708	5.121951	-0.2439024	132	57	-105	0.09165066	-0.477279	-0.001190222	0.8739585
5	100	1555415333	-848.876	-112.301	571.997	-3.780488	4.878049	-0.2439024	132	55	-107	0.09152343	-0.4785302	-0.001373333	0.8732871
5	100	1555415333	-841.19	-109.922	565.409	-3.292683	4.268293	0	131	56	-107	0.09134383	-0.4804529	-0.00143437	0.8722495
5	100	1555415333	-835.578	-109.8	568.703	-3.292683	4.634147	-0.1219512	132	56	-107	0.09125832	-0.4817957	-0.001678518	0.8715171
5	100	1555415333	-816.302	-112.606	571.692	-3.04878	4.268293	0.2439024	131	54	-108	0.09133144	-0.4810633	-0.001739555	0.8719138
5	100	1555415333	-822.097	-108.458	582.428	-2.195122	3.658537	0.3658537	131	55	-106	0.09155111	-0.4809107	-0.001800592	0.8719748
5	100	1555415333	-804.59	-108.275	588.223	-3.04878	3.658537	0.4878049	133	55	-102	0.0914723	-0.479873	-0.001709037	0.8725547
5	100	1555415333	-810.385	-109.922	583.831	-3.414634	3.170732	0.6097561	131	54	-106	0.0915638	-0.4787439	-0.001770074	0.8731651
5	100	1555415333	-819.535	-108.824	589.931	-3.780488	2.804878	0.4878049	130	55	-105	0.09159634	-0.4783471	-0.001953185	0.8733787
5	100	1555415333	-816.485	-111.142	575.657	-3.902439	2.682927	0.6097561	133	54	-104	0.09149575	-0.4775842	-0.00225837	0.8738059
5	100	1555415333	-823.927	-109.861	574.071	-3.780488	2.804878	0.4878049	132	53	-108	0.09153971	-0.4777978	-0.002502518	0.8736839
5	100	1555415333	-824.598	-106.872	582.672	-3.292683	2.073171	0.4878049	132	56	-105	0.09167212	-0.4778283	-0.002471999	0.8736534
5	100	1555415333	-827.526	-111.142	577.304	-2.804878	1.829268	0.3658537	132	55	-104	0.09149314	-0.4772485	-0.002471999	0.873989
5	100	1555415333	-826.733	-110.715	578.768	-2.926829	1.463415	0.3658537	132	56	-105	0.09148891	-0.4779198	-0.002349925	0.8736228
5	100	1555415333	-832.589	-110.776	574.986	-3.658537	1.829268	0.4878049	132	54	-105	0.0914762	-0.4785913	-0.002319407	0.8732566
5	100	1555415333	-826.977	-114.741	569.801	-3.170732	2.804878	0.7317073	130	57	-105	0.09133927	-0.4791711	-0.002807703	0.8729514
5	100	1555415333	-834.846	-109.8	578.524	-2.195122	2.073171	0.7317073	132	56	-105	0.0911871	-0.479812	-0.00265511	0.8726158
5	100	1555415333	-832.162	-109.373	568.337	-2.195122	1.219512	0.2439024	132	55	-106	0.09107525	-0.4800562	-0.002471999	0.8724937
5	100	1555415333	-816.363	-108.885	553.758	-1.585366	2.682927	0.6097561	133	54	-105	0.09124982	-0.4809107	-0.00225837	0.8720053
5	100	1555415334	-822.951	-106.018	558.394	-1.341463	2.926829	0.3658537	132	55	-105	0.09117206	-0.4804834	-0.002014222	0.8722495
5	100	1555415334	-812.703	-102.663	605.12	-2.195122	2.682927	0.3658537	133	55	-105	0.09129815	-0.4790185	-0.001342814	0.873043
5	100	1555415334	-813.679	-107.482	581.94	-3.780488	2.195122	0.7317073	133	54	-103	0.0912165	-0.4779198	-0.001403851	0.8736534
5	100	1555415334	-826.001	-104.737	607.682	-3.902439	2.439024	0.6097561	132	55	-106	0.09116977	-0.4773705	-0.001403851	0.8739585
5	100	1555415334	-823.561	-110.105	587.308	-2.804878	2.195122	0.4878049	133	54	-106	0.09123872	-0.4781945	-0.001373333	0.8735008
5	100	1555415334	-827.709	-107.726	575.474	-2.682927	2.682927	0.2439024	133	54	-107	0.09107525	-0.4785607	-0.001068148	0.8733177
5	100	1555415334	-832.406	-109.312	591.09	-2.682927	3.04878	0.1219512	133	56	-104	0.09116749	-0.478988	-0.001251259	0.8730735
5	100	1555415334	-826.123	-105.835	572.302	-2.439024	3.170732	0.1219512	133	55	-105	0.09096295	-0.4788049	-0.001037629	0.8731956
5	100	1555415334	-831.857	-108.214	564.982	-2.682927	3.658537	0.2439024	133	54	-104	0.09113152	-0.4793848	-0.0009460738	0.8728599
5	100	1555415334	-828.197	-102.175	575.352	-2.560976	3.04878	0.2439024	132	55	-104	0.09088624	-0.4795984	-0.0007019257	0.8727683
5	100	1555415334	-830.027	-109.251	567.178	-2.926829	3.04878	0.3658537	132	55	-104	0.09088723	-0.4802088	-0.0005798517	0.8724326
5	100	1555415334	-826.55	-115.473	569.252	-3.04878	2.439024	0.3658537	135	55	-104	0.09082097	-0.4809412	-0.0007629627	0.8720359
5	100	1555415334	-826.123	-108.519	576.45	-2.804878	1.829268	0.3658537	131	56	-105	0.09090199	-0.4813685	-0.0006714072	0.8717917
5	100	1555415334	-821.792	-112.85	584.624	-2.682927	1.585366	0.6097561	132	55	-105	0.09107918	-0.4810022	-0.001159703	0.8719748
5	100	1555415334	-836.249	-107.055	578.768	-2.926829	1.463415	0.6097561	131	55	-104	0.09099963	-0.480575	-0.0008545183	0.872219
5	100	1555415334	-830.271	-104.92	584.441	-3.04878	1.097561	0.4878049	132	55	-104	0.09094558	-0.4800867	-0.0006408887	0.8724937
5	100	1555415334	-816.851	-103.09	550.769	-3.292683	1.707317	0.7317073	132	55	-103	0.09067943	-0.480636	-0.0004882962	0.872219
5	100	1555415334	-826.916	-105.896	570.228	-3.292683	2.195122	0.3658537	131	54	-106	0.09076878	-0.4804529	-0.0005188147	0.8723106
5	100	1555415334	-817.583	-106.75	604.632	-3.170732	2.682927	0.4878049	133	54	-104	0.09087215	-0.4799341	-0.0007629627	0.8725852
5	100	1555415334	-823.805	-113.277	582.672	-3.04878	2.682927	0.2439024	131	55	-105	0.09080686	-0.4800562	-0.001312296	0.8725242
5	100	1555415334	-835.212	-106.567	603.229	-3.292683	2.439024	0.4878049	132	55	-104	0.09073233	-0.4799035	-0.001403851	0.8726158
5	100	1555415334	-833.687	-112.362	602.558	-3.292683	2.195122	0.2439024	131	54	-105	0.09075794	-0.4804529	-0.001495407	0.8723106
5	100	1555415334	-843.508	-109.8	561.322	-3.292683	2.439024	0.2439024	131	54	-104	0.09056005	-0.4811548	-0.00143437	0.8719443
5	100	1555415334	-830.027	-109.861	578.402	-3.04878	2.073171	0.1219512	134	55	-104	0.09062485	-0.4810328	-0.001129185	0.8720053
5	100	1555415334	-822.341	-110.41	568.154	-3.04878	2.195122	0.2439024	134	54	-102	0.09052845	-0.4812159	-0.001495407	0.8719138
5	100	1555415334	-830.149	-108.336	568.093	-3.292683	2.073171	0.2439024	132	55	-104	0.09054524	-0.4817652	-0.001525925	0.8716086
5	100	1555415334	-814.533	-107.299	575.047	-3.170732	1.463415	0.4878049	132	55	-104	0.09051725	-0.4821009	-0.001709037	0.8714255
5	100	1555415334	-819.047	-108.763	579.805	-3.170732	1.829268	0.1219512	133	54	-105	0.09060611	-0.4819178	-0.001953185	0.8715171
5	100	1555415334	-832.467	-110.227	584.075	-3.292683	2.682927	0.1219512	132	54	-103	0.0904998	-0.4815516	-0.001861629	0.8717307
