Log Mode	Log Freq	Timestamp	AccX	AccY	AccZ	GyroX	GyroY	GyroZ	MagnX	MagnY	MagnZ	qw	qi	qj	qk
5	100	1555432196	8.357	-38.369	1028.094	-2.804878	1.585366	0.2439024	-155	29	-227	0.7800424	-0.008728294	0.002716147	-0.6256599
5	100	1555432196	-368.928	-44.408	-853.329	30.12195	21.21951	26.21951	-267	134	624	0.3906976	0.2943205	0.8696249	-0.06695761
5	100	1555432196	-359.717	-52.216	-867.176	-2.804878	1.585366	-0.1219512	-267	133	624	0.2181792	0.3119602	0.9219642	-0.07113865
5	100	1555432196	-372.771	-52.704	-873.215	-2.804878	1.707317	0.2439024	-268	134	622	0.1989601	0.3132725	0.92584	-0.07138279
5	100	1555432196	-370.209	-48.434	-852.841	-2.560976	1.585366	0.2439024	-266	133	621	0.1911722	0.3137608	0.9273049	-0.07150487
5	100	1555432196	-378.444	-48.434	-850.279	-2.439024	1.95122	0.4878049	-267	134	623	0.1870006	0.314005	0.9280679	-0.0715659
5	100	1555432196	-360.266	-43.676	-847.29	-3.170732	1.829268	0.4878049	-267	134	624	0.1842371	0.3141881	0.9285561	-0.07159642
5	100	1555432196	-359.29	-40.992	-849.791	-3.04878	1.707317	0.4878049	-268	133	622	0.182367	0.3142796	0.9288919	-0.07162694
5	100	1555432196	-362.828	-46.482	-863.455	-3.04878	1.341463	0.3658537	-268	133	622	0.1809603	0.3143712	0.929136	-0.07162694
5	100	1555432196	-366	-41.785	-842.959	-2.682927	1.219512	0	-269	133	622	0.1801094	0.3144017	0.9292886	-0.07165746
5	100	1555432196	-366.732	-45.445	-856.013	-2.195122	1.219512	0.1219512	-266	132	622	0.1792012	0.3144627	0.9294412	-0.07168798
5	100	1555432196	-368.745	-41.907	-854.244	-2.195122	1.341463	0	-266	133	623	0.1787136	0.3144627	0.9295328	-0.0717185
5	100	1555432196	-372.344	-44.591	-853.451	-2.073171	1.341463	-0.1219512	-266	133	623	0.1783174	0.3144932	0.9295938	-0.07177953
5	100	1555432196	-377.468	-46.055	-857.782	-2.317073	1.585366	0	-268	132	621	0.1779989	0.3144932	0.9296548	-0.07177953
5	100	1555432812	-366.122	-46.665	-848.388	-2.439024	1.341463	0.6097561	-265	134	622	0.1776258	0.3145237	0.9297158	-0.07177953
5	100	1555432812	-368.806	-50.264	-843.752	-2.682927	1.829268	0.4878049	-267	132	621	0.177412	0.3145542	0.9297463	-0.07177953
5	100	1555432812	-368.989	-48.495	-847.778	-2.926829	1.585366	0.4878049	-267	135	622	0.1773701	0.3145848	0.9297464	-0.07174902
5	100	1555432812	-368.989	-53.192	-840.519	-2.926829	1.585366	0.4878049	-268	133	624	0.1772225	0.3145848	0.9297769	-0.0717185
5	100	1555432812	-365.939	-36.966	-833.138	-3.170732	1.585366	0.6097561	-268	131	623	0.1772348	0.3145848	0.9297769	-0.07168798
5	100	1555432812	-363.987	-41.541	-873.581	-2.926829	1.463415	0.2439024	-267	134	624	0.1770747	0.3145848	0.9298074	-0.07168798
5	100	1555432812	-361.425	-41.175	-868.579	-2.804878	1.585366	0.2439024	-266	135	621	0.177087	0.3145848	0.9298074	-0.07165746
5	100	1555432812	-362.279	-44.774	-847.778	-2.560976	1.95122	0.2439024	-268	134	624	0.1769144	0.3145848	0.9298379	-0.07168798
5	100	1555432812	-364.902	-43.676	-854.854	-2.439024	1.341463	0.1219512	-267	133	621	0.1769144	0.3145848	0.9298379	-0.07168798
5	100	1555432812	-367.891	-49.166	-827.77	-1.95122	1.585366	0.2439024	-268	133	622	0.1768896	0.3145848	0.9298379	-0.07174902
5	100	1555432812	-367.342	-52.033	-852.292	-2.073171	1.341463	0.1219512	-266	132	622	0.1768773	0.3145848	0.9298378	-0.07177953
5	100	1555432812	-373.137	-51.118	-847.046	-2.073171	1.341463	0.2439024	-268	133	621	0.1768648	0.3145848	0.9298379	-0.07181005
5	100	1555432812	-363.194	-53.436	-870.836	-2.439024	1.341463	0.1219512	-267	135	622	0.1768648	0.3145848	0.9298379	-0.07181005
5	100	1555432812	-360.937	-42.944	-842.593	-2.804878	1.707317	0.3658537	-267	134	623	0.1768104	0.3146153	0.9298379	-0.07181005
5	100	1555432812	-360.51	-43.249	-845.704	-2.560976	1.585366	0.4878049	-267	132	620	0.1768229	0.3146153	0.9298379	-0.07177953
5	100	1555432812	-360.876	-38.43	-849.791	-2.804878	1.585366	0.3658537	-268	134	622	0.1768352	0.3146153	0.9298379	-0.07174902
5	100	1555432812	-357.155	-44.896	-842.898	-2.682927	1.341463	0.3658537	-265	133	621	0.1768352	0.3146153	0.9298379	-0.07174902
5	100	1555432812	-372.466	-49.41	-860.344	-2.682927	1.463415	0.3658537	-268	134	624	0.1768352	0.3146153	0.9298379	-0.07174902
5	100	1555432812	-375.211	-51.362	-847.168	-2.682927	1.585366	0.1219512	-267	135	622	0.1768352	0.3146153	0.9298379	-0.07174902
5	100	1555432812	-365.085	-52.216	-862.357	-2.926829	1.585366	0.3658537	-268	134	622	0.1768352	0.3146153	0.9298379	-0.07174902
5	100	1555432812	-366.244	-41.297	-845.704	-2.317073	1.463415	0.2439024	-268	133	622	0.1768352	0.3146153	0.9298379	-0.07174902
5	100	1555432812	-364.353	-39.711	-856.44	-2.804878	1.585366	0.1219512	-268	135	622	0.1769021	0.3145848	0.9298379	-0.0717185
5	100	1555432812	-364.78	-43.493	-834.846	-3.04878	1.707317	0.3658537	-266	136	621	0.1769021	0.3145848	0.9298379	-0.0717185
5	100	1555432812	-357.826	-48.251	-841.373	-3.04878	1.585366	0.3658537	-267	133	624	0.17686	0.3146153	0.9298379	-0.07168798
5	100	1555432812	-370.819	-51.85	-848.998	-3.902439	1.95122	0.4878049	-267	133	622	0.1769391	0.3145848	0.9298379	-0.07162694
5	100	1555432812	-376.065	-47.702	-848.937	-3.170732	1.463415	0.6097561	-268	133	622	0.176897	0.3146153	0.9298379	-0.07159642
5	100	1555432812	-367.891	-48.922	-862.418	-3.04878	1.463415	0.4878049	-265	134	621	0.1769514	0.3145848	0.9298379	-0.07159642
5	100	1555432812	-364.78	-41.541	-852.292	-3.04878	1.219512	0.3658537	-268	132	621	0.1769514	0.3145848	0.9298379	-0.07159642
5	100	1555432812	-359.29	-49.776	-840.397	-3.292683	1.463415	0.3658537	-266	133	622	0.1769514	0.3145848	0.9298379	-0.07159642
5	100	1555432812	-367.525	-53.863	-848.022	-3.902439	1.707317	0.3658537	-268	135	622	0.176803	0.3145848	0.9298685	-0.0715659
5	100	1555432812	-372.466	-47.092	-834.114	-3.414634	1.463415	0.1219512	-268	132	621	0.1768574	0.3145543	0.9298685	-0.0715659
5	100	1555432812	-369.477	-45.384	-852.353	-3.658537	1.219512	0.3658537	-268	132	623	0.1768699	0.3145543	0.9298685	-0.07153539
5	100	1555432812	-378.871	-42.7	-850.767	-3.780488	1.219512	0.4878049	-267	133	620	0.1768822	0.3145543	0.9298685	-0.07150487
5	100	1555432812	-372.71	-43.31	-853.39	-3.536585	1.463415	0.2439024	-268	133	623	0.1768822	0.3145543	0.9298685	-0.07150487
5	100	1555432812	-376.309	-43.371	-851.987	-3.04878	1.341463	0.1219512	-266	132	621	0.1770427	0.3145543	0.9298379	-0.07150487
5	100	1555432812	-377.224	-40.992	-844.24	-3.658537	0.8536586	0.6097561	-267	135	622	0.1770427	0.3145543	0.9298379	-0.07150487
5	100	1555432812	-373.503	-44.225	-850.584	-5	1.097561	1.341463	-266	132	619	0.1770008	0.3145848	0.9298379	-0.07147435
5	100	1555432812	-371.49	-45.628	-853.878	-5.365854	2.560976	1.463415	-268	133	621	0.1770624	0.3145848	0.9298379	-0.07132176
5	100	1555432812	-368.501	-44.591	-846.619	-4.634147	2.073171	0.4878049	-267	132	621	0.176154	0.3158055	0.9296548	-0.07055879
5	100	1555432812	-371.429	-40.809	-844.423	-3.780488	1.219512	0.3658537	-267	133	623	0.1763943	0.3156835	0.9296854	-0.07010102
5	100	1555432812	-365.512	-41.48	-841.861	-2.682927	0.4878049	0.1219512	-266	132	622	0.1772335	0.3147984	0.9298074	-0.07034516
5	100	1555432812	-365.939	-47.092	-863.699	-2.682927	-0.7317073	0	-268	132	621	0.1767998	0.3151341	0.9297159	-0.07113864
5	100	1555432812	-373.381	-42.029	-849.852	1.219512	-1.219512	0.2439024	-265	131	621	0.1773974	0.3146458	0.9297464	-0.07141332
5	100	1555432812	-372.466	-38.003	-878.949	1.585366	-1.219512	0	-267	130	622	0.1780014	0.3144017	0.9297159	-0.07138279
5	100	1555432812	-359.9	-39.04	-815.021	1.95122	-0.9756098	0.1219512	-265	135	622	0.1781949	0.3143407	0.9296854	-0.0715659
5	100	1555432812	-372.893	-41.968	-844.484	-4.390244	3.170732	0.9756098	-267	132	621	0.1773014	0.3155309	0.9294717	-0.07132176
5	100	1555432812	-390.583	-30.073	-928.298	-7.682927	5.609756	1.097561	-266	132	621	0.1776217	0.3153783	0.9294717	-0.07119969
5	100	1555432812	-293.166	-56.12	-1226.832	-4.634147	4.390244	1.097561	-266	133	623	0.1909326	0.3624988	0.9063692	-0.103122
5	100	1555432812	-368.379	-51.362	-877.79	-2.804878	1.219512	0.3658537	-264	131	621	0.189876	0.3664357	0.9054537	-0.09912412
5	100	1555432812	-370.758	-38.857	-866.078	-2.804878	1.341463	0.8536586	-270	132	620	0.1850663	0.3742485	0.9035615	-0.09625538
5	100	1555432812	-364.353	-49.044	-840.214	-2.682927	1.585366	0	-264	131	622	0.1811161	0.3804743	0.901944	-0.09451582
5	100	1555432812	-369.965	-54.656	-840.824	-2.560976	1.585366	0.1219512	-268	133	622	0.1780537	0.3848384	0.9007843	-0.09372234
5	100	1555432812	-372.588	-45.811	-849.242	-2.560976	1.463415	0.1219512	-266	133	622	0.1768648	0.3867611	0.900296	-0.09274575
5	100	1555432812	-367.342	-41.175	-853.512	-2.439024	1.463415	0.4878049	-267	132	620	0.1752387	0.3894162	0.8995941	-0.09152501
5	100	1555432812	-370.88	-37.027	-832.589	-2.560976	1.585366	0.1219512	-265	132	620	0.1734828	0.392407	0.8987701	-0.09018219
5	100	1555432812	-365.329	-37.454	-868.945	-2.560976	1.219512	0.1219512	-267	131	619	0.1718636	0.394879	0.8980987	-0.08917508
5	100	1555432812	-376.004	-43.127	-858.392	-2.682927	1.463415	0.1219512	-265	132	619	0.171555	0.3957945	0.897824	-0.08847316
5	100	1555432812	-360.937	-40.077	-831.979	-2.682927	1.341463	0.3658537	-268	132	620	0.1707215	0.3969542	0.8975189	-0.08798486
5	100	1555432812	-363.621	-44.347	-849.486	-2.926829	0.9756098	0.3658537	-264	132	621	0.1705771	0.3973815	0.8973662	-0.08789331
5	100	1555432812	-378.688	-41.663	-844.606	-2.926829	1.219512	0.3658537	-268	132	620	0.1712239	0.3966185	0.8976104	-0.08758812
5	100	1555432812	-372.161	-44.53	-853.878	-2.439024	1.219512	0.6097561	-265	132	620	0.1711057	0.3969237	0.8975189	-0.08737449
5	100	1555432812	-377.773	-45.018	-857.538	-2.439024	1.463415	0.3658537	-266	130	622	0.1708521	0.3971374	0.8974578	-0.08752709
5	100	1555432812	-371.185	-43.737	-851.926	-2.317073	1.707317	0.4878049	-263	132	621	0.1707952	0.3972594	0.8973967	-0.08771019
5	100	1555432812	-379.664	-42.09	-864.37	-2.682927	1.219512	0.3658537	-266	133	622	0.1708206	0.397351	0.8973662	-0.08755761
5	100	1555432812	-370.453	-35.502	-838.933	-2.317073	1.463415	0.2439024	-265	130	620	0.1714091	0.3968932	0.8975189	-0.08691671
5	100	1555432812	-369.233	-43.371	-844.972	-2.682927	1.829268	0.3658537	-268	133	621	0.1714613	0.3968017	0.8975494	-0.08691671
5	100	1555432812	-374.906	-48.8	-847.656	-2.560976	1.707317	0.4878049	-265	131	621	0.1716533	0.396527	0.8976104	-0.08716086
5	100	1555432812	-372.039	-47.519	-850.767	-2.682927	1.463415	0.4878049	-267	131	621	0.1712103	0.3969542	0.8974884	-0.08734398
5	100	1555432812	-368.501	-43.798	-838.079	-2.804878	1.585366	0.3658537	-266	131	620	0.1710419	0.3970153	0.8974578	-0.08771019
5	100	1555432812	-368.562	-49.349	-853.573	-2.560976	1.707317	0	-266	132	621	0.1707327	0.3971984	0.8973967	-0.08810694
5	100	1555432812	-378.993	-47.214	-844.179	-2.439024	1.463415	0.4878049	-266	132	621	0.1706903	0.3970458	0.8974273	-0.08856472
5	100	1555432812	-362.035	-49.105	-842.898	-2.439024	1.95122	0.3658537	-265	132	622	0.1704423	0.3972289	0.8973662	-0.08883938
5	100	1555432812	-361.852	-37.942	-848.083	-2.439024	1.463415	0.1219512	-266	131	621	0.1702971	0.3977782	0.8972136	-0.08819849
5	100	1555432812	-369.904	-37.515	-840.519	-2.682927	1.463415	0.1219512	-267	133	621	0.1697548	0.3987548	0.8969695	-0.08731346
5	100	1555432812	-371.551	-41.907	-846.619	-2.560976	1.219512	0.1219512	-265	132	620	0.1695904	0.3990906	0.8968779	-0.08703879
5	100	1555432812	-375.272	-47.092	-850.218	-2.560976	1.585366	0.3658537	-267	132	621	0.1702084	0.3983887	0.8970611	-0.08716087
5	100	1555432812	-365.695	-48.19	-845.094	-2.439024	1.463415	0.1219512	-264	131	621	0.1705081	0.3976867	0.8972442	-0.08789331
5	100	1555432812	-372.161	-46.116	-851.804	-2.682927	1.219512	0	-268	133	621	0.1700187	0.3980834	0.8971221	-0.08829005
5	100	1555432812	-361.791	-43.859	-845.094	-2.317073	1.097561	-0.1219512	-266	131	620	0.1698464	0.3982055	0.8970916	-0.0883816
5	100	1555432812	-363.743	-48.678	-848.815	-1.95122	0.8536586	-0.2439024	-267	133	622	0.1700164	0.3979003	0.8971526	-0.08880886
5	100	1555432812	-370.819	-42.7	-844.606	-2.317073	1.097561	0	-265	131	619	0.1700854	0.3978088	0.8971831	-0.08877835
5	100	1555432812	-360.937	-47.519	-847.778	-2.439024	0.7317073	0	-267	131	621	0.1692523	0.3990906	0.8967864	-0.08862575
5	100	1555432812	-371.856	-38.247	-845.46	-2.317073	1.097561	0	-265	134	620	0.1694893	0.3990295	0.8968169	-0.08813746
5	100	1555432812	-367.22	-40.504	-873.459	-2.439024	0.9756098	0	-265	133	620	0.1697318	0.398999	0.8968474	-0.08749656
5	100	1555432812	-372.771	-36.844	-864.37	-2.439024	0.8536586	-0.2439024	-265	132	621	0.1699896	0.3989074	0.8968779	-0.08709983
5	100	1555432812	-363.377	-45.628	-853.695	-1.829268	1.219512	-0.2439024	-267	133	620	0.1701215	0.3985717	0.8969695	-0.08743553
5	100	1555432812	-368.623	-55.388	-869.189	-1.707317	0.8536586	-0.9756098	-264	133	619	0.1697455	0.3985717	0.896939	-0.08847316
5	100	1555432812	-368.623	-56.73	-837.408	-1.829268	1.097561	-1.219512	-268	133	622	0.1696398	0.3981445	0.8970305	-0.08966338
5	100	1555432812	-362.828	-47.702	-840.397	-1.585366	1.585366	-1.463415	-264	134	622	0.1692349	0.3986328	0.8968779	-0.08978546
5	100	1555432812	-363.926	-49.959	-858.209	-1.463415	1.097561	-1.463415	-265	133	620	0.1687347	0.3993042	0.8966949	-0.08957183
5	100	1555432812	-364.658	-40.016	-849.364	-1.219512	0.6097561	-1.95122	-265	130	622	0.168023	0.4002197	0.8964507	-0.08926664
5	100	1555432812	-357.826	-70.943	-849.303	-2.195122	0.8536586	-1.219512	-264	133	621	0.1682145	0.4000366	0.8965117	-0.08911405
5	100	1555432812	-369.355	-39.04	-848.388	-1.829268	0.2439024	-1.219512	-265	131	621	0.1684273	0.3997009	0.8966033	-0.08929716
5	100	1555432812	-367.647	-40.931	-848.876	-2.195122	0.3658537	-0.8536586	-265	132	620	0.1689321	0.3992126	0.8967864	-0.08868679
5	100	1555432812	-367.464	-35.624	-834.968	-1.829268	-0.4878049	-0.9756098	-265	132	621	0.1700453	0.3986328	0.896939	-0.08761864
5	100	1555432812	-356.301	-38.857	-826.489	-1.463415	-1.097561	-0.9756098	-264	132	621	0.1703225	0.3985107	0.897	-0.08700827
5	100	1555432812	-365.512	-47.458	-840.519	-0.4878049	-1.585366	-1.341463	-265	132	621	0.170029	0.3991516	0.8967559	-0.08716087
5	100	1555432812	-371.429	-42.944	-858.941	0.3658537	-2.195122	-1.219512	-263	132	621	0.1693638	0.4000672	0.8964202	-0.08771019
5	100	1555432813	-359.717	-41.297	-879.986	0.4878049	-2.317073	-1.341463	-265	133	621	0.1690895	0.400708	0.8962066	-0.08749656
5	100	1555432813	-362.95	-36.295	-858.514	0.4878049	-1.95122	-1.219512	-262	133	622	0.1694821	0.4007385	0.8961455	-0.0872219
5	100	1555432813	-371.368	-40.931	-862.479	0.9756098	-2.439024	-1.95122	-264	132	621	0.1695289	0.400647	0.896115	-0.08786279
5	100	1555432813	-381.494	-65.087	-843.203	1.463415	-3.292683	-2.195122	-262	131	621	0.1700548	0.3994568	0.8963591	-0.08975494
5	100	1555432813	-388.692	-58.316	-851.865	1.463415	-4.02439	-2.073171	-263	133	622	0.1705229	0.3989685	0.8964202	-0.09042634
5	100	1555432813	-385.154	-62.83	-855.22	0.6097561	-2.804878	-2.195122	-260	133	623	0.1715006	0.3973815	0.8967864	-0.09192175
5	100	1555432813	-383.873	-51.24	-830.637	0.3658537	-2.804878	-2.073171	-262	132	620	0.1715609	0.3971069	0.8967864	-0.0929899
5	100	1555432813	-379.054	-59.719	-864.126	0.1219512	-2.439024	-2.195122	-259	134	620	0.1714557	0.3970458	0.8967254	-0.09402753
5	100	1555432813	-366.061	-38.552	-843.691	-0.4878049	-2.317073	-2.073171	-262	134	622	0.1719839	0.3969542	0.8967254	-0.09344768
5	100	1555432813	-370.392	-44.286	-849.181	-0.4878049	-1.95122	-2.317073	-261	133	621	0.1715461	0.3976257	0.8965117	-0.09344768
5	100	1555432813	-379.542	-37.332	-822.89	-0.4878049	-2.195122	-1.829268	-258	134	621	0.1720097	0.3979309	0.8964202	-0.09216591
5	100	1555432813	-382.531	-46.848	-848.449	-0.9756098	-1.341463	-1.829268	-260	136	623	0.1732162	0.3966491	0.8967559	-0.09216591
5	100	1555432813	-384.666	-51.179	-867.359	-0.9756098	-0.7317073	-1.341463	-260	133	623	0.1736012	0.3962523	0.8968474	-0.09225745
5	100	1555432813	-398.025	-56.059	-863.821	-1.219512	-0.7317073	-1.219512	-257	134	621	0.1742295	0.3953063	0.897061	-0.09305093
5	100	1555432813	-397.11	-59.17	-867.969	-1.341463	-0.1219512	-0.7317073	-259	134	620	0.1751181	0.3938414	0.8974273	-0.09405804
5	100	1555432813	-412.421	-48.8	-859.551	-1.707317	0.3658537	-0.8536586	-258	133	622	0.1767673	0.3914609	0.8980682	-0.09479049
5	100	1555432813	-397.049	-59.414	-858.392	-2.073171	1.341463	-0.4878049	-258	133	623	0.1774916	0.3904233	0.8983123	-0.09540086
5	100	1555432813	-391.803	-71.858	-853.817	-1.95122	1.097561	-0.7317073	-258	133	619	0.1770678	0.3901792	0.8983123	-0.09717093
5	100	1555432813	-395.219	-66.002	-843.386	-1.707317	1.585366	-0.9756098	-258	133	622	0.1766792	0.3900571	0.8983123	-0.09836116
5	100	1555432813	-388.631	-64.721	-848.022	-1.585366	1.219512	-1.95122	-257	134	622	0.1759783	0.3904538	0.8981903	-0.09915464
5	100	1555432813	-388.875	-67.039	-856.013	-1.097561	0.8536586	-2.682927	-258	135	623	0.1752705	0.3908505	0.8980682	-0.09994812
5	100	1555432813	-377.651	-63.196	-852.719	0.3658537	0	-3.902439	-256	135	621	0.1749337	0.3910947	0.8980072	-0.1001312
5	100	1555432813	-391.742	-37.82	-866.627	0.1219512	0	-3.658537	-256	133	620	0.1743149	0.3921629	0.8977935	-0.09894101
5	100	1555432813	-399.672	-43.432	-864.675	-1.463415	1.463415	-2.073171	-257	133	621	0.1753518	0.3916745	0.8980377	-0.09680472
5	100	1555432813	-389.302	-40.504	-864.065	-1.95122	2.073171	-1.097561	-258	136	620	0.1757697	0.391644	0.8981292	-0.0953093
5	100	1555432813	-397.415	-48.922	-850.218	-2.439024	2.439024	-0.6097561	-257	134	621	0.1764306	0.3911557	0.8983123	-0.09436323
5	100	1555432813	-393.877	-53.985	-857.599	-2.682927	2.804878	0.2439024	-257	133	621	0.1765768	0.3909421	0.8983734	-0.09439375
5	100	1555432813	-391.437	-63.684	-862.601	-2.682927	2.804878	0.4878049	-256	132	624	0.176198	0.3909726	0.8983734	-0.0949736
5	100	1555432813	-380.03	-54.046	-851.804	-2.804878	3.292683	0.4878049	-259	136	621	0.1748202	0.3925291	0.8979766	-0.09485153
5	100	1555432813	-381.006	-61.549	-863.699	-3.04878	3.04878	0.3658537	-257	132	621	0.1742839	0.3932005	0.8977935	-0.09479049
5	100	1555432813	-382.714	-57.828	-841.556	-3.536585	3.414634	0.3658537	-258	135	621	0.174013	0.3932615	0.8977935	-0.09503464
5	100	1555432813	-374.662	-56.852	-852.841	-3.292683	3.780488	0.8536586	-255	134	620	0.1737588	0.3934141	0.897763	-0.09515671
5	100	1555432813	-394.731	-65.27	-851.865	-3.658537	3.414634	1.097561	-259	133	624	0.1738389	0.3929563	0.8979156	-0.0954619
5	100	1555432813	-386.069	-54.778	-847.839	-4.02439	3.658537	1.219512	-256	133	622	0.1741406	0.3926511	0.8980682	-0.09472945
5	100	1555432813	-390.095	-57.706	-864.675	-4.146341	3.780488	1.341463	-258	134	620	0.1736983	0.39317	0.8979461	-0.09454634
5	100	1555432813	-382.47	-52.399	-851.987	-4.268293	4.02439	1.585366	-257	131	623	0.1730811	0.3939329	0.897763	-0.09424116
5	100	1555432813	-388.692	-62.769	-882.975	-4.390244	4.146341	1.707317	-260	132	620	0.1723399	0.3947874	0.8975494	-0.09405804
5	100	1555432813	-395.341	-69.784	-863.577	-5	4.512195	1.707317	-257	132	622	0.1727805	0.3937498	0.897824	-0.0949736
5	100	1555432813	-379.847	-82.838	-817.522	-4.878049	4.634147	1.463415	-259	133	622	0.1724508	0.3927732	0.8980072	-0.09784234
5	100	1555432813	-386.13	-89.06	-840.153	-4.878049	4.146341	1.219512	-257	132	620	0.1717682	0.3922849	0.8980377	-0.1006806
5	100	1555432813	-377.834	-74.542	-836.066	-4.634147	4.634147	0.9756098	-258	133	621	0.1715765	0.3917356	0.8981903	-0.1017792
5	100	1555432813	-366.61	-60.573	-828.197	-4.512195	4.268293	1.341463	-256	132	619	0.1706064	0.3931089	0.8978851	-0.1008026
5	100	1555432813	-377.346	-47.824	-808.921	-4.512195	4.146341	0.8536586	-258	133	619	0.1710283	0.3935057	0.8978851	-0.09851375
5	100	1555432813	-362.767	-50.203	-868.579	-4.878049	3.902439	1.341463	-257	134	620	0.1703799	0.39494	0.8976104	-0.09637745
5	100	1555432813	-368.074	-39.894	-864.492	-4.756098	3.658537	1.463415	-260	132	619	0.1701305	0.3963744	0.8972747	-0.09402753
5	100	1555432813	-362.889	-34.526	-858.819	-4.756098	3.780488	1.585366	-259	131	620	0.1693903	0.3980529	0.8969085	-0.09173864
5	100	1555432813	-375.516	-37.576	-858.148	-5.121951	3.658537	1.707317	-259	131	619	0.1703251	0.3976867	0.8970916	-0.08978546
5	100	1555432813	-383.263	-48.312	-833.016	-4.512195	3.780488	2.073171	-258	131	620	0.1716826	0.3960387	0.8976104	-0.08929716
5	100	1555432813	-386.069	-69.784	-846.375	-4.756098	3.902439	2.195122	-259	132	620	0.1723915	0.3946349	0.8979767	-0.09045687
5	100	1555432813	-391.986	-65.697	-883.89	-4.878049	4.512195	2.560976	-259	130	620	0.1720178	0.3942991	0.8980377	-0.09201331
5	100	1555432813	-399.672	-59.536	-833.382	-4.268293	4.512195	2.195122	-258	130	619	0.1725855	0.3931395	0.8983428	-0.09292886
5	100	1555432813	-366.549	-45.994	-853.695	-5.121951	4.634147	2.073171	-259	130	618	0.1716303	0.3944517	0.8980072	-0.09237953
5	100	1555432813	-358.924	-39.711	-836.92	-5.731708	4.268293	2.073171	-259	130	618	0.1709235	0.3959166	0.8976715	-0.09067049
5	100	1555432813	-342.027	-39.894	-842.288	-5.853659	3.658537	2.317073	-259	132	619	0.169022	0.3991821	0.8967559	-0.08896145
5	100	1555432813	-350.994	-37.149	-833.565	-6.097561	3.292683	2.804878	-260	130	617	0.1682708	0.4007996	0.8963286	-0.08740501
5	100	1555432813	-351.177	-49.471	-827.953	-6.463415	2.804878	3.04878	-259	130	617	0.167769	0.4018983	0.8959929	-0.08676412
5	100	1555432813	-356.606	-41.602	-843.508	-6.585366	2.195122	3.658537	-259	132	611	0.1671768	0.4029969	0.8956572	-0.08627582
5	100	1555432813	-354.41	-28.426	-844.423	-7.317073	1.829268	4.02439	-260	130	616	0.1672255	0.4036073	0.8954436	-0.08554338
5	100	1555432813	-369.416	-57.706	-861.686	-6.707317	1.341463	4.390244	-262	128	617	0.1675593	0.4035463	0.8954436	-0.08517717
5	100	1555432813	-384.239	-73.993	-843.874	-6.463415	0.7317073	5.243903	-259	128	617	0.1677975	0.4029054	0.8955352	-0.08676413
5	100	1555432813	-319.091	55.937	-788.73	-8.414635	0.2439024	10.60976	-260	130	615	0.1680424	0.4033632	0.8953215	-0.08636739
5	100	1555432813	-295.911	-37.515	-881.633	-7.682927	0.1219512	10.48781	-259	130	616	0.16841	0.4041871	0.8949248	-0.08590961
5	100	1555432813	-385.337	-104.432	-880.962	-7.195122	-0.7317073	9.756098	-259	131	618	0.1689326	0.4049501	0.894528	-0.08542131
5	100	1555432813	-280.112	-300.669	-619.821	-0.2439024	1.829268	0.6097561	-259	129	615	0.1651062	0.4065676	0.8937346	-0.09317301
5	100	1555432813	-391.62	49.532	-839.482	-6.341464	2.804878	2.439024	-259	129	614	0.1607222	0.4125797	0.8917509	-0.09341716
5	100	1555432813	-411.811	-47.946	-849.791	-5	2.195122	1.707317	-260	130	615	0.1635875	0.4089786	0.8927885	-0.09436323
5	100	1555432813	-384.788	-31.964	-850.889	-4.390244	2.682927	1.341463	-260	130	613	0.1663775	0.4064455	0.893643	-0.09231849
5	100	1555432813	-388.082	-26.84	-856.135	-4.878049	2.439024	1.219512	-261	130	615	0.1693222	0.4034547	0.8946196	-0.09060945
5	100	1555432813	-383.751	-33.55	-864.492	-5	3.04878	1.463415	-261	128	614	0.1718164	0.4010743	0.8953825	-0.08893093
5	100	1555432813	-381.799	-39.955	-858.453	-5.365854	3.414634	1.585366	-260	129	613	0.1722308	0.4007385	0.8955046	-0.08841212
5	100	1555432813	-356.24	-19.276	-877.18	-4.878049	3.536585	1.463415	-261	129	607	0.1710661	0.4033021	0.8948027	-0.08609272
5	100	1555432813	-364.292	-4.026	-838.75	-4.634147	3.414634	2.073171	-260	128	615	0.1696742	0.4074221	0.8936125	-0.08169805
5	100	1555432813	-383.995	-10.736	-841.068	-4.268293	2.560976	1.707317	-262	128	612	0.1733636	0.4038514	0.8947417	-0.07928709
5	100	1555432813	-363.682	-41.114	-859.124	-3.780488	3.04878	1.341463	-261	129	613	0.1732215	0.4034852	0.8948637	-0.08008057
5	100	1555432813	-356.85	-55.876	-855.098	-3.292683	2.560976	1.097561	-262	128	612	0.170931	0.4050722	0.8943144	-0.08307138
5	100	1555432813	-368.074	-42.212	-849.364	-3.170732	2.926829	0.9756098	-262	127	614	0.1701047	0.4051943	0.8942534	-0.08481093
5	100	1555432813	-380.03	-18.3	-837.408	-2.926829	2.804878	0.8536586	-260	125	611	0.1721546	0.4031495	0.8948942	-0.08365124
5	100	1555432813	-379.359	-14.762	-862.418	-3.292683	3.04878	0.7317073	-262	128	613	0.1731942	0.4026612	0.8951079	-0.08154546
5	100	1555432813	-378.932	-20.13	-866.932	-3.292683	3.414634	1.341463	-261	128	612	0.1735915	0.4027222	0.8951384	-0.08005005
5	100	1555432813	-369.111	-31.537	-854.976	-3.292683	3.536585	1.097561	-262	128	614	0.1737249	0.402295	0.895291	-0.08020265
5	100	1555432813	-371.429	-49.349	-857.599	-3.414634	3.536585	0.9756098	-262	127	612	0.1723897	0.4027833	0.8951384	-0.08230842
5	100	1555432813	-365.939	-42.822	-850.706	-3.170732	3.170732	1.097561	-262	129	611	0.1712434	0.4033937	0.8949248	-0.08401746
5	100	1555432813	-354.532	-39.284	-846.863	-3.170732	3.170732	0.7317073	-262	128	612	0.1706178	0.4038209	0.8948027	-0.08453627
5	100	1555432813	-343.796	-25.376	-831.491	-3.780488	2.439024	1.219512	-261	128	612	0.1692986	0.4059573	0.8941924	-0.0834071
5	100	1555432813	-338.367	-39.04	-831.247	-3.780488	2.439024	1.219512	-262	129	610	0.1683753	0.4079409	0.8935514	-0.08246101
5	100	1555432813	-348.92	-38.857	-846.558	-3.536585	1.707317	1.219512	-261	127	612	0.1670416	0.4099246	0.8929105	-0.0822779
5	100	1555432813	-366.976	-37.698	-826.611	-3.536585	1.707317	0.8536586	-263	128	610	0.166992	0.4099857	0.8928495	-0.08273568
5	100	1555432813	-359.778	-34.709	-872.971	-3.170732	1.95122	0.4878049	-261	127	613	0.1665345	0.4102908	0.8927578	-0.08313242
5	100	1555432813	-378.993	-40.626	-876.936	-3.04878	1.707317	0.6097561	-263	126	610	0.1671443	0.4093448	0.8930326	-0.08362072
5	100	1555432813	-371.673	-32.94	-848.998	-2.804878	2.073171	0.6097561	-262	128	612	0.1682602	0.4077273	0.8935514	-0.08374279
5	100	1555432813	-373.381	-30.744	-850.401	-3.292683	2.439024	0.3658537	-260	126	611	0.1699235	0.4057131	0.8941619	-0.08365124
5	100	1555432813	-376.919	-33.367	-828.441	-3.04878	2.560976	0.4878049	-262	125	610	0.1706391	0.4044923	0.8945585	-0.08386487
5	100	1555432813	-360.388	-42.09	-838.628	-3.04878	2.317073	0.7317073	-264	127	610	0.1702021	0.4049501	0.894406	-0.08417005
5	100	1555432813	-365.268	-34.404	-858.514	-3.292683	1.95122	0.4878049	-262	126	612	0.1695755	0.4060183	0.8941008	-0.08352916
5	100	1555432813	-352.885	-20.374	-837.896	-3.536585	1.585366	0.9756098	-262	127	611	0.1697898	0.4060488	0.8941313	-0.0826136
5	100	1555432813	-345.992	-37.698	-862.967	-4.02439	1.341463	1.707317	-263	127	611	0.1685525	0.4082156	0.8934599	-0.08172857
5	100	1555432813	-342.088	-36.356	-855.342	-3.414634	1.341463	0.8536586	-262	127	610	0.165907	0.4120304	0.8922086	-0.08166754
5	100	1555432813	-358.497	-40.931	-838.689	-3.414634	0.8536586	0.7317073	-262	127	613	0.1666241	0.4109623	0.8924833	-0.08258308
5	100	1555432814	-367.647	-38.979	-852.658	-3.292683	1.219512	0.4878049	-261	125	611	0.1672541	0.4096805	0.8928495	-0.08371227
5	100	1555432814	-379.298	-38.674	-859.185	-3.04878	1.341463	0.2439024	-262	125	613	0.1685432	0.4076662	0.8934599	-0.08444472
5	100	1555432814	-370.209	-35.99	-859.49	-3.04878	1.341463	0.2439024	-262	126	610	0.1691627	0.4067812	0.8937346	-0.08456679
5	100	1555432814	-368.562	-24.278	-858.026	-2.195122	1.585366	0.6097561	-261	127	610	0.1697633	0.4065065	0.8938261	-0.08371227
5	100	1555432814	-364.231	-11.468	-854.61	-3.04878	1.463415	0.7317073	-261	125	610	0.1706981	0.4063234	0.8939177	-0.08169805
5	100	1555432814	-376.126	-20.984	-857.904	-3.658537	1.585366	0.7317073	-260	125	613	0.1716364	0.405591	0.8941923	-0.08035523
5	100	1555432814	-367.647	-41.175	-849.608	-3.658537	1.707317	0.9756098	-261	126	608	0.1718521	0.4050722	0.8943144	-0.08114871
5	100	1555432814	-309.209	-29.402	-847.595	-3.536585	0.9756098	0.6097561	-259	126	609	0.1699927	0.4078189	0.8934293	-0.08105716
5	100	1555432814	-352.458	-44.225	-821.487	-3.292683	0.8536586	1.219512	-261	128	610	0.1686683	0.4091922	0.8929716	-0.08194221
5	100	1555432814	-335.012	-43.066	-837.53	-3.536585	0.7317073	0.7317073	-261	126	610	0.1673265	0.4108707	0.8924223	-0.0822779
5	100	1555432814	-345.016	-42.7	-834.907	-3.170732	0	0.8536586	-261	126	609	0.1655246	0.413007	0.8916898	-0.08316294
5	100	1555432814	-370.392	-35.807	-849.364	-3.04878	0.2439024	0.9756098	-261	126	610	0.1663153	0.412244	0.8918729	-0.08340709
5	100	1555432814	-375.577	-38.186	-882.731	-2.804878	0.3658537	0.6097561	-262	126	607	0.1676146	0.4102908	0.8924528	-0.08423109
5	100	1555432814	-375.15	-30.439	-862.967	-2.560976	0.6097561	0.3658537	-260	127	611	0.1691403	0.4083987	0.8930326	-0.08423109
5	100	1555432814	-344.894	-3.66	-829.6	-2.073171	0.6097561	0.3658537	-262	125	607	0.1702919	0.4082461	0.8930936	-0.08197272
5	100	1555432814	-334.89	1.525	-817.827	-2.073171	-0.2439024	0.9756098	-260	127	611	0.1705554	0.4096499	0.8926969	-0.07867672
5	100	1555432814	-344.833	-18.239	-826.733	-2.195122	-0.7317073	1.097561	-261	127	610	0.1700665	0.41142	0.892117	-0.07705923
5	100	1555432814	-365.207	-50.691	-861.198	-2.926829	-1.097561	1.463415	-261	126	609	0.1684984	0.4132511	0.8914456	-0.07846308
5	100	1555432814	-394.182	-67.039	-876.814	-3.536585	-0.7317073	1.463415	-260	128	610	0.1687812	0.4113285	0.8919035	-0.08264413
5	100	1555432814	-400.587	-40.809	-878.156	-4.146341	0.1219512	1.219512	-259	127	610	0.1710663	0.4075136	0.8929716	-0.08526871
5	100	1555432814	-405.711	-24.034	-906.826	-4.390244	0.2439024	1.341463	-260	127	611	0.1738381	0.4046449	0.8937956	-0.08468886
5	100	1555432814	-410.896	-27.084	-904.691	-3.902439	1.219512	1.097561	-261	128	610	0.1761598	0.4020509	0.8945891	-0.08386487
5	100	1555432814	-398.391	-27.389	-891.271	-3.780488	1.829268	0.9756098	-260	127	610	0.1776524	0.4003418	0.8950773	-0.08368175
5	100	1555432814	-392.108	-26.779	-846.07	-3.414634	2.560976	0.9756098	-262	127	609	0.17883	0.3986022	0.8955962	-0.0839259
5	100	1555432814	-369.965	-21.716	-857.904	-3.292683	2.560976	1.097561	-260	127	608	0.1779753	0.4001587	0.8951689	-0.08288828
5	100	1555432814	-373.991	-16.714	-885.781	-4.02439	3.04878	1.463415	-261	129	610	0.1766494	0.4029969	0.8943449	-0.08084353
5	100	1555432814	-375.028	-26.657	-847.412	-4.390244	3.170732	1.219512	-259	126	611	0.1762237	0.4036683	0.8941619	-0.0804468
5	100	1555432814	-369.355	-53.741	-848.205	-4.878049	2.804878	1.219512	-261	127	608	0.1752078	0.403882	0.8940703	-0.08258308
5	100	1555432814	-359.778	-51.85	-842.715	-4.390244	2.317073	1.097561	-260	128	603	0.1731735	0.4053468	0.8935514	-0.08526871
5	100	1555432814	-353.678	-38.796	-851.926	-3.902439	2.439024	0.8536586	-261	128	611	0.1714663	0.4070254	0.8930326	-0.08615375
5	100	1555432814	-360.449	-23.058	-810.263	-3.414634	1.585366	0.7317073	-260	127	611	0.1717546	0.4073611	0.8929411	-0.08493301
5	100	1555432814	-356.179	-11.468	-820.877	-3.170732	1.341463	0.6097561	-260	128	611	0.1725081	0.4073611	0.8930021	-0.08273568
5	100	1555432814	-366.305	-15.372	-856.318	-3.04878	1.219512	0.7317073	-260	125	610	0.1727922	0.4081851	0.892758	-0.08069094
5	100	1555432814	-363.011	-27.267	-856.745	-2.926829	1.219512	0.6097561	-260	128	610	0.1719431	0.4096194	0.8923307	-0.0799585
5	100	1555432814	-363.804	-33.245	-856.684	-2.439024	0.9756098	0.3658537	-260	127	608	0.1710393	0.4106265	0.8919645	-0.08081301
5	100	1555432814	-368.135	-30.988	-852.536	-2.439024	0.8536586	0.1219512	-260	128	609	0.1710551	0.4099857	0.8921476	-0.08200324
5	100	1555432814	-361.974	-20.74	-865.895	-2.804878	0.9756098	0.3658537	-260	126	609	0.1708482	0.4107181	0.8919035	-0.08142339
5	100	1555432814	-368.562	-13.603	-861.686	-2.682927	1.097561	0.4878049	-261	128	609	0.1712479	0.4108097	0.8919035	-0.08011109
5	100	1555432814	-370.941	-5.856	-843.996	-3.292683	1.219512	0.3658537	-259	127	610	0.1733142	0.4093142	0.8923917	-0.07785272
5	100	1555432814	-375.638	-3.843	-861.503	-3.292683	1.585366	0.4878049	-260	128	611	0.17428	0.408887	0.8925443	-0.0761742
5	100	1555432814	-359.229	-9.516	-825.391	-3.170732	1.463415	0.8536586	-260	128	609	0.1739794	0.409711	0.8923002	-0.07528916
5	100	1555432814	-353.251	-21.533	-850.523	-3.414634	1.097561	0.8536586	-262	128	610	0.1729362	0.4110233	0.8918424	-0.07596057
5	100	1555432814	-365.878	-30.073	-868.884	-3.536585	0.2439024	0.8536586	-258	129	601	0.1713436	0.4125797	0.8913236	-0.07721183
5	100	1555432814	-371.063	-36.844	-850.584	-3.414634	0.2439024	0.8536586	-262	129	610	0.1714477	0.4118168	0.8915067	-0.07892086
5	100	1555432814	-364.17	-42.517	-862.601	-3.536585	0.7317073	0.6097561	-260	128	609	0.1717314	0.4106571	0.8918119	-0.08087405
5	100	1555432814	-358.192	-43.432	-851.194	-2.682927	0.7317073	0.3658537	-261	127	612	0.1704647	0.4115421	0.8914762	-0.08273568
5	100	1555432814	-362.096	-14.64	-854.671	-2.560976	0.9756098	0.4878049	-259	128	609	0.1700739	0.4127018	0.8910794	-0.08203375
5	100	1555432814	-391.01	-10.736	-874.191	-2.439024	0.6097561	0.7317073	-261	127	612	0.1720211	0.4109928	0.8916593	-0.08023316
5	100	1555432814	-404.552	-26.047	-874.801	-2.073171	0.8536586	0.7317073	-260	127	611	0.1746896	0.4077884	0.8926359	-0.07995851
5	100	1555432814	-388.692	-41.846	-884.378	-2.317073	1.829268	0.6097561	-260	127	612	0.1755246	0.4059573	0.8931547	-0.08163702
5	100	1555432814	-394.426	-39.65	-887.489	-2.195122	2.439024	0.6097561	-260	127	609	0.1751738	0.405652	0.8932158	-0.08322398
5	100	1555432814	-398.879	-37.82	-886.94	-2.195122	2.926829	-0.1219512	-260	128	612	0.1756113	0.4044313	0.8935514	-0.08462783
5	100	1555432814	-399.306	-31.598	-885.049	-2.317073	3.414634	-0.1219512	-258	127	609	0.1764355	0.4028138	0.8940703	-0.08514664
5	100	1555432814	-400.038	-37.82	-880.779	-1.829268	4.268293	0	-261	127	612	0.1766966	0.4021729	0.8942839	-0.08539079
5	100	1555432814	-385.642	-37.515	-880.535	-2.073171	4.878049	-0.6097561	-261	129	609	0.1757485	0.4028138	0.8941619	-0.08560443
5	100	1555432814	-405.711	-31.354	-883.768	-2.073171	5.121951	-0.1219512	-261	128	612	0.1760966	0.4022034	0.894406	-0.08520768
5	100	1555432814	-404.43	-44.652	-886.513	-2.073171	5.97561	-0.2439024	-260	128	610	0.1767349	0.4005554	0.8949553	-0.08587909
5	100	1555432814	-395.341	-49.898	-878.034	-1.829268	6.463415	-1.219512	-261	128	611	0.176043	0.4000672	0.8951384	-0.08764916
5	100	1555432814	-386.13	-68.076	-876.997	-0.9756098	7.073171	-1.341463	-260	127	610	0.175677	0.4000366	0.8952299	-0.08758812
5	100	1555432814	-367.22	-92.842	-871.629	-0.4878049	7.195122	-2.073171	-262	126	611	0.1751067	0.3999451	0.8953826	-0.08758813
5	100	1555432814	-366.671	-76.555	-859.185	0.3658537	7.195122	-1.95122	-261	128	610	0.1745583	0.399823	0.8955352	-0.08767968
5	100	1555432814	-384.727	-55.815	-828.868	1.341463	6.707317	-1.95122	-264	128	611	0.1735091	0.4001587	0.8955352	-0.08822901
5	100	1555432814	-365.024	-6.649	-863.577	0.7317073	7.195122	-2.560976	-263	128	609	0.1728691	0.4000672	0.8956878	-0.08835109
5	100	1555432814	-363.743	51.728	-843.386	-0.3658537	6.829268	-2.073171	-265	128	611	0.1724167	0.3999756	0.8958098	-0.08841212
5	100	1555432814	-332.877	36.051	-835.639	-0.3658537	6.95122	-1.585366	-262	128	610	0.1717328	0.3999146	0.8959624	-0.08847316
5	100	1555432814	-306.098	29.036	-815.143	-0.4878049	5.487805	-0.7317073	-265	129	608	0.1702831	0.4051027	0.8944975	-0.0822779
5	100	1555432814	-326.777	-17.202	-805.322	-0.1219512	4.390244	-0.7317073	-264	126	609	0.1669358	0.4101382	0.8929716	-0.08075198
5	100	1555432814	-316.651	-58.194	-821.792	-0.2439024	5.121951	-2.317073	-267	128	612	0.1615672	0.4140446	0.8916593	-0.0860622
5	100	1555432814	-329.4	-46.543	-791.231	-1.707317	3.04878	-1.463415	-267	128	610	0.160327	0.4153874	0.891232	-0.08633687
5	100	1555432814	-310.795	-32.208	-853.146	-0.9756098	2.926829	-0.4878049	-267	129	611	0.1575027	0.4199042	0.8897672	-0.08478042
5	100	1555432814	-342.454	-12.932	-853.512	-1.707317	2.317073	-0.9756098	-266	129	611	0.1560381	0.4232917	0.8886685	-0.08212531
5	100	1555432814	-358.436	47.031	-866.322	-1.95122	2.317073	0	-266	128	612	0.1610925	0.4207282	0.8897672	-0.07315287
5	100	1555432814	-397.354	22.021	-865.346	-1.95122	2.317073	0.8536586	-265	126	611	0.167444	0.414716	0.8918424	-0.06775109
5	100	1555432814	-356.24	-47.824	-860.771	-1.341463	2.439024	0	-267	128	613	0.1691872	0.4110843	0.8929716	-0.07061983
5	100	1555432814	-343.674	-102.48	-845.582	-1.219512	2.560976	-0.8536586	-265	127	609	0.1641983	0.4132206	0.8921781	-0.07940916
5	100	1555432814	-342.088	-81.008	-831.43	-1.463415	2.560976	-1.341463	-268	127	613	0.1601151	0.4142887	0.8916592	-0.08758812
5	100	1555432814	-381.311	-39.589	-839.116	-2.195122	2.926829	-0.3658537	-265	126	610	0.1612156	0.4123356	0.8922697	-0.08856472
5	100	1555432814	-422.73	-4.209	-881.938	-3.658537	3.414634	0.6097561	-266	127	613	0.1680048	0.4049501	0.8946501	-0.08597064
5	100	1555432814	-406.565	-6.466	-903.41	-4.268293	5.121951	0.3658537	-266	127	609	0.1734538	0.3994872	0.8964201	-0.08218634
5	100	1555432814	-363.865	14.579	-881.511	-3.658537	5.365854	0.6097561	-268	126	611	0.1745112	0.399823	0.8964812	-0.07751702
5	100	1555432814	-330.925	13.481	-866.444	-2.804878	5.121951	1.219512	-266	126	609	0.1718778	0.4059572	0.8946501	-0.07251198
5	100	1555432814	-326.777	2.989	-831.857	-2.926829	3.536585	1.707317	-268	126	613	0.1694714	0.4112979	0.8929409	-0.06906338
5	100	1555432814	-347.639	-61.122	-870.775	-2.560976	3.170732	1.097561	-268	126	611	0.1663635	0.41377	0.8921171	-0.07242043
5	100	1555432814	-361.608	-100.406	-867.847	-3.170732	4.02439	0.6097561	-268	127	611	0.1630487	0.4137089	0.8920255	-0.08093509
5	100	1555432814	-342.271	-89.853	-826.733	-3.902439	3.902439	0.7317073	-266	126	611	0.1601959	0.4134648	0.8919035	-0.08883938
5	100	1555432814	-340.685	-54.778	-850.523	-4.634147	3.658537	1.341463	-270	129	611	0.1596592	0.4128849	0.892056	-0.09094516
5	100	1555432814	-346.48	2.135	-841.617	-5.609756	3.658537	1.463415	-269	127	611	0.1613359	0.4128544	0.8922086	-0.08651997
5	100	1555432814	-349.652	56.791	-901.763	-5.487805	4.268293	1.829268	-270	129	611	0.1643257	0.4134342	0.8922697	-0.07696768
5	100	1555432814	-353.922	65.819	-923.296	-5	4.146341	2.560976	-267	125	610	0.1668849	0.4152043	0.8918119	-0.06653035
5	100	1555432814	-372.161	4.026	-864.858	-3.414634	4.02439	1.829268	-268	126	610	0.1687411	0.4144109	0.8920866	-0.06302073
5	100	1555432814	-353.434	-17.751	-847.778	-2.804878	3.780488	1.219512	-266	127	612	0.1693743	0.412244	0.892819	-0.0651265
5	100	1555432814	-332.389	-50.02	-854.793	-1.829268	3.536585	1.829268	-270	127	611	0.1672035	0.4128849	0.8926052	-0.06946012
5	100	1555432814	-336.293	-87.474	-858.209	-1.585366	4.02439	2.073171	-267	125	610	0.1617932	0.4165471	0.8913236	-0.0765099
5	100	1555432814	-340.197	-89.792	-836.31	-1.95122	3.902439	1.463415	-269	126	612	0.1581298	0.4173712	0.8908964	-0.08426161
5	100	1555432814	-332.755	-92.903	-815.509	-1.707317	3.902439	-0.1219512	-267	125	609	0.1559814	0.4171574	0.8908046	-0.09009063
5	100	1555432814	-297.985	-99.186	-779.946	-0.6097561	3.04878	-0.2439024	-272	126	611	0.1521795	0.41966	0.8898892	-0.09393597
5	100	1555432814	-226.066	-91.073	-741.577	0.6097561	1.097561	-0.8536586	-268	126	611	0.1429126	0.4301584	0.8860439	-0.09729301
5	100	1555432814	-203.618	-46.238	-727.669	1.463415	-2.195122	-0.2439024	-269	127	610	0.1336076	0.446791	0.8796655	-0.09335612
5	100	1555432815	-241.804	-35.624	-757.376	-0.6097561	-5	-0.6097561	-268	128	611	0.1301554	0.4540544	0.8767052	-0.0910062
5	100	1555432815	-335.988	14.396	-853.512	-2.926829	-5.365854	0	-270	127	610	0.1304874	0.4539629	0.8766748	-0.09128087
5	100	1555432815	-367.586	31.903	-877.119	-4.878049	-5	1.463415	-268	128	610	0.1311217	0.4539323	0.8765832	-0.09140293
5	100	1555432815	-347.822	-53.802	-854.61	-4.878049	-5.121951	0.9756098	-269	127	611	0.1316901	0.4539323	0.8764916	-0.09146398
5	100	1555432815	-313.723	-55.632	-816.485	-4.146341	-5.487805	0.4878049	-269	125	611	0.132297	0.4539018	0.8764001	-0.09161656
5	100	1555432815	-278.587	-75.335	-778.299	-2.317073	-7.439024	0.3658537	-270	126	613	0.1330042	0.4538102	0.8763085	-0.09192175
5	100	1555432815	-292.129	-93.757	-820.145	-2.195122	-8.658537	0.6097561	-266	127	613	0.1337187	0.4537492	0.8761864	-0.09234901
5	100	1555432815	-372.466	-105.286	-885.415	-3.04878	-8.536586	0.2439024	-268	126	611	0.1344488	0.4536882	0.8760644	-0.09274575
5	100	1555432815	-419.314	-69.479	-927.749	-4.878049	-5.487805	0.7317073	-265	128	610	0.1351236	0.4536271	0.8759727	-0.09292886
5	100	1555432815	-422.913	-25.742	-897.92	-4.756098	-5.243903	-0.2439024	-267	128	611	0.135709	0.453505	0.8759422	-0.09295938
5	100	1555432815	-384.239	27.145	-820.145	-3.658537	-3.902439	-0.8536586	-266	126	608	0.1363099	0.4533525	0.8759117	-0.09311197
5	100	1555432815	-288.103	-14.213	-764.025	-1.097561	-6.95122	-0.3658537	-267	129	609	0.1367233	0.4532304	0.8758813	-0.09338665
5	100	1555432815	-278.221	-41.968	-857.904	-1.341463	-9.146341	0.3658537	-265	128	608	0.1374724	0.4531388	0.8757591	-0.09387494
5	100	1555432815	-316.224	-40.565	-844.118	-1.585366	-10.73171	0	-266	127	609	0.1383045	0.4530473	0.8756065	-0.09451582
5	100	1555432815	-357.887	-32.452	-881.755	-0.7317073	-12.19512	0	-264	129	607	0.139191	0.4529557	0.8754539	-0.09506515
5	100	1555432815	-363.133	65.331	-861.32	-3.414634	-10.12195	0	-265	129	608	0.1402579	0.4527726	0.8753319	-0.09549242
5	100	1555432815	-420.107	28.304	-825.33	-4.756098	-10	0.6097561	-262	129	608	0.141063	0.4526811	0.8752098	-0.09585864
5	100	1555432815	-420.839	-71.248	-930.25	-3.536585	-10.12195	0.7317073	-263	129	610	0.1422179	0.4525895	0.8750267	-0.09625538
5	100	1555432815	-415.471	-90.524	-891.576	-2.560976	-9.634147	0.2439024	-260	128	611	0.1430237	0.4524674	0.8749046	-0.09674367
5	100	1555432815	-445.727	-108.336	-893.711	-1.097561	-9.512196	-0.9756098	-261	129	611	0.1437818	0.4523453	0.8747826	-0.09729301
5	100	1555432815	-501.237	-13.603	-962.031	-2.195122	-6.097561	-0.3658537	-259	128	610	0.1445065	0.4521928	0.874691	-0.09775078
5	100	1555432815	-543.876	20.618	-1016.321	-3.04878	-2.560976	-0.1219512	-260	129	612	0.1523434	0.4447462	0.8774377	-0.09537034
5	100	1555432815	-559.797	27.755	-995.093	-4.146341	2.439024	0.4878049	-257	129	610	0.1695978	0.4273507	0.8835719	-0.08893093
5	100	1555432815	-522.038	-3.111	-964.471	-4.268293	5.487805	0.9756098	-260	131	611	0.1824396	0.4132816	0.8879971	-0.08587909
5	100	1555432815	-457.256	-61.793	-927.566	-3.414634	7.317073	0.7317073	-258	127	608	0.1854534	0.4087954	0.8894009	-0.08636738
5	100	1555432815	-403.393	-84.302	-875.289	-2.317073	8.04878	0.3658537	-260	130	611	0.1849254	0.408887	0.8894925	-0.08612324
5	100	1555432815	-386.984	-51.362	-847.961	-2.439024	7.560976	0	-260	128	609	0.1845022	0.4089175	0.889584	-0.08594012
5	100	1555432815	-365.207	-6.1	-848.449	-3.170732	6.95122	0.1219512	-261	128	608	0.1840777	0.408948	0.8896756	-0.08575701
5	100	1555432815	-350.872	29.097	-826.733	-4.02439	6.341464	0.7317073	-260	128	609	0.1835192	0.4100772	0.8894314	-0.08407849
5	100	1555432815	-331.352	17.629	-796.416	-5.243903	5.365854	0.8536586	-261	128	610	0.1817533	0.4152043	0.8879055	-0.07870723
5	100	1555432815	-326.533	-25.01	-796.111	-6.097561	4.02439	1.097561	-259	128	607	0.1780664	0.4211249	0.8859829	-0.0773339
5	100	1555432815	-306.769	-40.199	-755.607	-5.121951	2.073171	0.8536586	-261	128	612	0.1729562	0.4263131	0.8842128	-0.08069094
5	100	1555432815	-323.971	-50.447	-783.301	-3.170732	1.341463	0.7317073	-258	126	610	0.1682129	0.4316233	0.8823206	-0.08316294
5	100	1555432815	-324.337	-37.759	-799.771	-2.682927	0.2439024	0	-259	127	610	0.1644841	0.4349498	0.8810694	-0.08648945
5	100	1555432815	-374.296	-9.394	-804.59	-1.707317	0.8536586	-0.2439024	-257	125	611	0.1675721	0.4310739	0.8824122	-0.08627582
5	100	1555432815	-343.369	6.466	-792.024	-1.463415	0.2439024	0.2439024	-261	129	611	0.1717104	0.4277779	0.8836328	-0.08194219
5	100	1555432815	-302.072	-21.106	-821.426	-1.585366	-0.8536586	0.2439024	-259	128	608	0.1679574	0.4341563	0.8813135	-0.08114871
5	100	1555432815	-311.283	-48.922	-830.515	-2.073171	-1.463415	0.2439024	-261	129	609	0.16224	0.4416944	0.8784753	-0.08285775
5	100	1555432815	-341.539	-28.182	-818.315	-3.04878	-1.829268	0	-259	126	608	0.1615329	0.4421522	0.8782007	-0.08468886
5	100	1555432815	-381.616	-14.823	-858.087	-3.658537	-2.682927	0.3658537	-260	128	608	0.1651055	0.4380322	0.879635	-0.08432264
5	100	1555432815	-395.341	-14.64	-851.133	-3.658537	-2.560976	0.3658537	-258	129	609	0.1694802	0.4332713	0.8812525	-0.08334605
5	100	1555432815	-391.986	-33.855	-855.464	-3.414634	-2.317073	0.6097561	-261	129	609	0.1719709	0.4300363	0.8822901	-0.08401746
5	100	1555432815	-391.742	-38.552	-884.134	-2.804878	-1.707317	0.4878049	-258	130	608	0.1726506	0.4284494	0.8827174	-0.08621479
5	100	1555432815	-404.552	-31.537	-891.088	-2.560976	-0.9756098	0.1219512	-260	127	611	0.1734411	0.4271066	0.8831142	-0.08722191
5	100	1555432815	-415.349	-15.86	-893.223	-2.560976	-0.1219512	0.3658537	-256	129	609	0.1759658	0.4242073	0.8840297	-0.08703879
5	100	1555432815	-419.558	-18.178	-897.737	-3.04878	1.097561	0.4878049	-259	131	608	0.1783549	0.4214301	0.8849148	-0.08667257
5	100	1555432815	-418.643	-18.117	-906.094	-3.658537	1.585366	0.7317073	-258	130	606	0.1802522	0.4193243	0.8856166	-0.08578753
5	100	1555432815	-418.582	-34.831	-901.092	-4.02439	2.682927	0.7317073	-259	129	608	0.1803517	0.4186224	0.8858303	-0.08679464
5	100	1555432815	-424.987	-53.863	-898.469	-4.268293	3.780488	0.8536586	-257	128	609	0.1810409	0.4165471	0.886471	-0.08877834
5	100	1555432815	-428.769	-57.157	-863.394	-4.390244	4.512195	0.9756098	-259	129	610	0.1823149	0.4136479	0.8873257	-0.09115879
5	100	1555432815	-392.779	-24.339	-900.543	-5.487805	5.853659	0.7317073	-257	131	608	0.1798816	0.4151432	0.8868372	-0.09390544
5	100	1555432815	-428.769	0.061	-865.224	-4.878049	6.463415	1.097561	-258	129	610	0.1814967	0.4132511	0.8875393	-0.0925016
5	100	1555432815	-439.444	-28.243	-838.872	-4.878049	6.219512	1.219512	-255	128	609	0.1853027	0.4092227	0.8889126	-0.08963286
5	100	1555432815	-401.136	-50.142	-880.535	-4.878049	7.439024	1.341463	-258	129	611	0.1849842	0.4093142	0.8889737	-0.08926664
5	100	1555432815	-383.019	-62.891	-871.019	-4.390244	7.317073	1.097561	-255	130	610	0.1845999	0.4093753	0.8890652	-0.0888699
5	100	1555432815	-376.309	-45.872	-848.327	-4.02439	7.073171	0.4878049	-261	128	611	0.1841694	0.4094363	0.8891568	-0.08856472
5	100	1555432815	-375.76	-20.008	-840.58	-3.658537	7.317073	0.3658537	-258	128	610	0.183806	0.4094668	0.8892483	-0.08825953
5	100	1555432815	-373.93	-13.298	-838.018	-3.536585	6.95122	0.4878049	-259	129	610	0.1833729	0.4095279	0.8893399	-0.08795434
5	100	1555432815	-358.558	-18.117	-836.066	-3.414634	6.829268	0.8536586	-257	127	610	0.1829089	0.4095889	0.8894314	-0.08771019
5	100	1555432815	-352.702	-22.448	-822.89	-3.170732	6.219512	0.7317073	-258	128	608	0.1807599	0.4127323	0.8885159	-0.08670308
5	100	1555432815	-347.334	-17.202	-827.465	-2.926829	5.487805	0.4878049	-257	126	608	0.1774881	0.4174627	0.887112	-0.08517716
5	100	1555432815	-342.637	-17.69	-841.312	-2.926829	5.121951	0.7317073	-257	128	611	0.1741753	0.4228034	0.885403	-0.08343761
5	100	1555432815	-345.687	-22.387	-848.022	-3.04878	4.878049	0.7317073	-258	127	610	0.171568	0.4265572	0.8841823	-0.08267464
5	100	1555432815	-361.059	-19.886	-837.774	-3.170732	4.268293	0.3658537	-261	128	609	0.1710964	0.427076	0.8840602	-0.0822779
5	100	1555432815	-341.722	-11.956	-842.105	-3.170732	4.146341	0.3658537	-260	125	608	0.1698242	0.429487	0.8832667	-0.08087405
5	100	1555432815	-338.733	-5.978	-843.874	-3.414634	3.658537	0.8536586	-257	126	609	0.168379	0.4321116	0.8824123	-0.07922606
5	100	1555432815	-352.824	-12.81	-840.763	-3.780488	3.414634	0.9756098	-259	127	609	0.1679471	0.4330576	0.882107	-0.07837153
5	100	1555432815	-345.504	-11.041	-841.312	-4.02439	3.04878	1.097561	-260	127	609	0.1681569	0.4329966	0.8821375	-0.07791375
5	100	1555432815	-330.437	-25.986	-828.075	-4.268293	2.682927	0.9756098	-259	128	610	0.165939	0.4358043	0.8811609	-0.07806635
5	100	1555432815	-325.496	-26.23	-819.413	-3.780488	1.829268	1.219512	-260	128	608	0.164229	0.4381848	0.8802759	-0.07834101
5	100	1555432815	-323.544	-17.08	-823.073	-3.902439	1.219512	0.8536586	-259	127	608	0.1625495	0.4406262	0.8793603	-0.07843257
5	100	1555432815	-338.184	-22.997	-830.698	-4.146341	0.8536586	1.341463	-259	129	608	0.1611204	0.4424269	0.878689	-0.07876828
5	100	1555432815	-334.219	-20.557	-824.842	-4.146341	0.1219512	1.097561	-259	127	610	0.1615397	0.4419385	0.878811	-0.07928709
5	100	1555432815	-330.986	-18.239	-824.049	-4.268293	-1.097561	1.097561	-259	127	610	0.161024	0.4425184	0.8785669	-0.0798059
5	100	1555432815	-336.415	-32.33	-840.885	-3.902439	-1.829268	1.219512	-259	128	609	0.1605716	0.4433424	0.8781701	-0.08050783
5	100	1555432815	-354.776	-30.134	-837.652	-3.658537	-1.829268	1.097561	-257	127	610	0.1610622	0.4425184	0.8784143	-0.08139286
5	100	1555432815	-356.484	-20.374	-827.77	-3.902439	-1.707317	1.097561	-257	126	611	0.1628455	0.4405042	0.8790551	-0.08185064
5	100	1555432815	-346.48	-35.136	-816.546	-3.902439	-1.707317	0.7317073	-257	127	609	0.1629953	0.4399243	0.8791772	-0.08334605
5	100	1555432815	-355.996	-10.37	-845.155	-4.146341	-2.560976	1.097561	-257	127	609	0.1649294	0.4381848	0.879757	-0.08258308
5	100	1555432815	-366.793	-16.592	-839.543	-4.512195	-2.560976	1.219512	-259	128	609	0.1677921	0.4355907	0.8806116	-0.08142339
5	100	1555432815	-354.715	-30.683	-836.066	-4.146341	-2.926829	1.341463	-256	127	612	0.1683962	0.4347972	0.8807947	-0.0824305
5	100	1555432815	-362.157	-41.846	-849.242	-4.146341	-3.414634	1.097561	-256	128	609	0.1681286	0.4346141	0.8807337	-0.08456679
5	100	1555432815	-371.917	-36.417	-825.513	-3.902439	-3.536585	1.097561	-255	128	609	0.168698	0.4341563	0.8807947	-0.08514664
5	100	1555432815	-378.81	-25.376	-837.408	-3.780488	-3.414634	0.6097561	-256	128	610	0.1696827	0.4332103	0.8810388	-0.08548234
5	100	1555432815	-394.365	-14.396	-852.719	-3.536585	-3.292683	0.7317073	-255	128	609	0.1719365	0.431135	0.8816492	-0.08517716
5	100	1555432815	-394.06	-13.359	-830.271	-3.536585	-3.536585	0.9756098	-257	127	611	0.1732549	0.4301584	0.8819239	-0.08459731
5	100	1555432815	-384.361	-21.045	-857.904	-3.04878	-3.536585	0.8536586	-252	128	611	0.1749199	0.4284799	0.8824122	-0.08459731
5	100	1555432815	-386.008	-26.84	-867.847	-2.682927	-2.926829	0.6097561	-255	128	611	0.1754362	0.4279915	0.8824731	-0.08536027
5	100	1555432815	-395.158	-15.067	-874.069	-2.804878	-2.317073	0.6097561	-253	127	610	0.1761398	0.4275643	0.8825343	-0.08542131
5	100	1555432815	-407.785	-6.283	-858.392	-3.292683	-1.829268	0.4878049	-255	128	608	0.1783702	0.4252754	0.8832361	-0.08496352
5	100	1555432815	-401.197	-4.27	-854.244	-2.804878	-2.073171	0.4878049	-252	129	609	0.1812112	0.4224983	0.8841212	-0.08359019
5	100	1555432815	-400.343	-6.954	-859.429	-2.439024	-1.097561	0.6097561	-254	128	612	0.1829239	0.4210334	0.884579	-0.08239998
5	100	1555432815	-403.027	-16.104	-857.416	-2.317073	-0.7317073	0.9756098	-253	128	611	0.1838295	0.4204535	0.8847011	-0.08203375
5	100	1555432815	-401.014	-25.62	-840.397	-2.073171	0	0.8536586	-254	128	611	0.184568	0.4191717	0.8850673	-0.08297983
5	100	1555432815	-390.4	-19.032	-840.824	-1.829268	0.1219512	0.7317073	-252	129	610	0.1845482	0.4189276	0.8850978	-0.0839259
5	100	1555432815	-370.697	-16.104	-846.924	-1.707317	-0.1219512	0.3658537	-254	130	610	0.1826293	0.4217963	0.8841212	-0.08404797
5	100	1555432815	-377.651	-11.956	-838.018	-1.707317	-0.4878049	0.6097561	-251	129	613	0.1814152	0.4238105	0.8834193	-0.0839259
5	100	1555432815	-381.86	-23.912	-841.19	-1.707317	-0.4878049	0.3658537	-253	129	611	0.1801267	0.4254891	0.8828089	-0.08462783
5	100	1555432815	-383.873	-29.036	-844.423	-1.341463	-0.3658537	0.2439024	-251	129	613	0.1792815	0.4262215	0.8825037	-0.08590961
5	100	1555432815	-395.097	-17.812	-854	-1.219512	-0.1219512	-0.2439024	-254	128	610	0.1794741	0.4260079	0.8825648	-0.08594012
5	100	1555432815	-399.672	-13.298	-856.135	-1.097561	-0.1219512	0.1219512	-252	130	612	0.1800581	0.4257637	0.8826258	-0.08529923
5	100	1555432815	-406.138	-19.886	-858.331	-1.219512	0.3658537	0	-254	130	612	0.1817253	0.423658	0.8832972	-0.08529923
5	100	1555432815	-394.243	-25.132	-844.24	-1.219512	0.6097561	0	-253	129	614	0.1823964	0.4225898	0.8836024	-0.08600116
5	100	1555432815	-397.11	-29.463	-844.728	-0.6097561	0.9756098	-0.1219512	-253	130	612	0.1817358	0.4226508	0.8835413	-0.08771019
5	100	1555432815	-379.481	-20.74	-846.07	-0.3658537	0.6097561	-0.1219512	-252	129	612	0.1811601	0.423719	0.8831751	-0.08743553
5	100	1555432815	-380.701	-13.298	-833.138	-0.9756098	0.4878049	-0.3658537	-252	129	612	0.1807162	0.4247261	0.8828394	-0.08685568
5	100	1555432815	-388.936	-22.936	-831.674	-1.585366	0.7317073	0.3658537	-253	130	614	0.1801918	0.4255501	0.8825648	-0.08670309
5	100	1555432815	-389.912	-26.962	-846.314	-2.195122	0.6097561	0.2439024	-253	130	611	0.1794812	0.4267098	0.8821375	-0.08682516
5	100	1555432815	-395.768	-22.57	-856.379	-2.560976	0.6097561	0.7317073	-251	129	611	0.1789726	0.427076	0.8820155	-0.08731346
5	100	1555432815	-405.833	-20.984	-846.558	-3.04878	1.219512	0.8536586	-253	130	613	0.1797349	0.4260994	0.8823206	-0.08743553
5	100	1555432815	-399.733	-23.912	-865.407	-3.414634	1.341463	0.9756098	-251	131	613	0.1807683	0.4249397	0.8826869	-0.08725242
5	100	1555432815	-398.574	-21.228	-853.329	-3.292683	1.585366	0.8536586	-251	131	612	0.1811551	0.4244514	0.8828394	-0.08728294
5	100	1555432816	-396.012	-19.337	-857.294	-3.536585	1.95122	1.219512	-251	129	611	0.1811173	0.4246956	0.8827479	-0.08709983
5	100	1555432816	-388.692	-17.385	-849.608	-3.292683	2.195122	1.219512	-252	128	613	0.1813311	0.4244514	0.8828394	-0.08691671
5	100	1555432816	-388.753	-24.4	-834.846	-2.926829	2.073171	0.9756098	-251	129	613	0.1809136	0.4249092	0.8826869	-0.08709983
5	100	1555432816	-388.204	-29.951	-841.983	-3.04878	2.195122	0.8536586	-251	131	614	0.1804511	0.4253975	0.8825343	-0.0872219
5	100	1555432816	-390.217	-26.108	-851.316	-3.04878	2.195122	0.8536586	-251	129	613	0.1798932	0.4264047	0.8821681	-0.08716087
5	100	1555432816	-395.463	-33.794	-849.547	-3.170732	2.073171	0.4878049	-253	130	610	0.1795393	0.426252	0.8822291	-0.08801538
5	100	1555432816	-386.801	-11.529	-843.996	-2.926829	2.195122	0.7317073	-253	130	615	0.1801654	0.4257027	0.8824122	-0.08755761
5	100	1555432816	-385.398	-18.666	-853.878	-2.804878	2.317073	0.4878049	-252	128	611	0.1799022	0.4263741	0.8822291	-0.08667257
5	100	1555432816	-381.799	-15.372	-845.826	-3.292683	2.439024	0.4878049	-251	130	613	0.1797465	0.4269234	0.882046	-0.08615375
5	100	1555432816	-380.64	-20.862	-842.959	-2.804878	2.682927	0.4878049	-252	130	611	0.1793538	0.4272591	0.8819544	-0.08624531
5	100	1555432816	-388.57	-26.718	-847.839	-3.292683	2.560976	0.4878049	-251	129	614	0.1792789	0.427015	0.882046	-0.08667257
5	100	1555432816	-384.666	-20.618	-827.953	-3.04878	2.682927	0.6097561	-251	130	612	0.1793743	0.4266793	0.8821681	-0.0868862
5	100	1555432816	-377.468	-21.838	-829.417	-3.170732	2.682927	0.2439024	-252	129	613	0.1789328	0.4273812	0.8819239	-0.08682516
5	100	1555432816	-379.298	-24.644	-840.092	-3.170732	2.317073	0.3658537	-252	129	612	0.1780652	0.4285409	0.8815576	-0.08661153
5	100	1555432816	-381.921	-19.032	-828.685	-3.04878	2.317073	0.3658537	-250	128	614	0.1774911	0.4292734	0.881344	-0.08633687
5	100	1555432816	-386.13	-21.472	-848.998	-3.536585	2.195122	0.3658537	-252	129	612	0.1775945	0.4292428	0.881344	-0.08627582
5	100	1555432816	-383.446	-25.132	-845.887	-3.536585	1.95122	0.3658537	-251	128	612	0.1777902	0.428724	0.8815271	-0.08658101
5	100	1555432816	-382.104	-19.337	-841.434	-3.292683	2.195122	0.3658537	-252	130	612	0.1783201	0.4281442	0.8817407	-0.08618427
5	100	1555432816	-381.311	-20.801	-864.98	-3.536585	1.829268	0.2439024	-251	129	612	0.1783836	0.4282357	0.8817102	-0.08590961
5	100	1555432816	-385.581	-7.808	-830.027	-3.536585	1.95122	0.2439024	-253	129	612	0.1785736	0.428663	0.8815882	-0.08462783
5	100	1555432816	-384.056	-16.165	-827.953	-3.536585	2.317073	0.3658537	-251	128	614	0.1794005	0.427839	0.8818935	-0.08386488
5	100	1555432816	-384.91	-21.777	-848.998	-3.414634	2.073171	0.3658537	-252	129	613	0.1793577	0.427839	0.8818935	-0.08395643
5	100	1555432816	-388.204	-20.13	-830.881	-3.292683	1.829268	0	-250	127	616	0.178892	0.4281747	0.8818018	-0.08420057
5	100	1555432816	-381.799	-23.119	-845.155	-3.04878	2.439024	0.1219512	-253	128	612	0.1789068	0.4278084	0.8819238	-0.08474989
5	100	1555432816	-387.777	-20.74	-836.92	-3.04878	2.560976	0.1219512	-251	128	614	0.1790851	0.4270455	0.8821986	-0.08536027
5	100	1555432816	-374.662	-14.518	-826.977	-2.560976	1.95122	0	-253	128	612	0.1792305	0.4268014	0.8822901	-0.08532976
5	100	1555432816	-366.244	-17.873	-823.378	-2.560976	2.073171	0	-251	127	614	0.1782422	0.4283578	0.8817713	-0.08496353
5	100	1555432816	-365.39	-21.716	-838.384	-2.926829	2.195122	-0.2439024	-252	127	615	0.1769277	0.4304025	0.8810694	-0.08465835
5	100	1555432816	-372.1	-17.08	-844.423	-2.926829	1.829268	0	-252	128	614	0.1764029	0.4312571	0.8807947	-0.0842616
5	100	1555432816	-382.836	-21.35	-832.589	-3.04878	1.585366	0.2439024	-252	127	615	0.1770647	0.430311	0.8811304	-0.08420057
5	100	1555432816	-384.239	-20.679	-839.116	-2.926829	1.829268	0	-250	129	614	0.1775893	0.4293344	0.8814661	-0.08456679
5	100	1555432816	-380.152	-16.958	-845.887	-2.804878	1.341463	0.1219512	-250	128	615	0.1776522	0.4290902	0.8815576	-0.08471938
5	100	1555432816	-383.751	-17.446	-855.647	-2.682927	1.829268	0.2439024	-250	127	615	0.1778462	0.4291207	0.8815271	-0.08447523
5	100	1555432816	-386.679	-12.749	-845.216	-2.560976	1.829268	0.2439024	-250	127	612	0.1780349	0.4289682	0.8816187	-0.08389539
5	100	1555432816	-379.542	-15.372	-845.826	-2.560976	1.829268	0	-252	128	614	0.1788226	0.4279611	0.8819544	-0.08383434
5	100	1555432816	-377.895	-21.655	-842.593	-2.439024	1.585366	-0.1219512	-250	128	614	0.1779917	0.4289682	0.8816187	-0.08398694
5	100	1555432816	-373.442	-19.459	-841.739	-2.560976	1.707317	-0.1219512	-251	130	614	0.1772224	0.4299752	0.8812829	-0.08398693
5	100	1555432816	-377.224	-24.766	-833.87	-2.804878	1.341463	-0.1219512	-251	127	614	0.1773123	0.4295175	0.8814356	-0.08453627
5	100	1555432816	-375.76	-17.446	-831.247	-2.560976	1.097561	0	-250	127	614	0.1771586	0.4296701	0.8813745	-0.08471938
5	100	1555432816	-363.926	-21.655	-836.371	-2.439024	1.097561	-0.1219512	-250	128	615	0.1769573	0.4301584	0.8811914	-0.08456679
5	100	1555432816	-362.767	-19.52	-834.358	-2.195122	0.9756098	0.1219512	-251	128	615	0.175949	0.4313791	0.8807642	-0.0849025
5	100	1555432816	-367.525	-19.52	-838.567	-2.439024	0.7317073	0.1219512	-251	128	614	0.1756924	0.4317148	0.8806421	-0.08499405
5	100	1555432816	-360.937	-17.629	-833.199	-2.439024	0.7317073	0.1219512	-249	129	615	0.1753395	0.4323557	0.880398	-0.08499405
5	100	1555432816	-370.819	-22.814	-843.63	-2.439024	0.2439024	-0.1219512	-250	127	614	0.1747936	0.4332713	0.8800623	-0.08493301
5	100	1555432816	-384.727	-18.056	-831.491	-2.195122	0.4878049	0.1219512	-249	127	615	0.1756629	0.4321421	0.880459	-0.08478042
5	100	1555432816	-378.688	-17.263	-838.628	-1.95122	0.4878049	0	-250	127	614	0.1760056	0.4320505	0.880459	-0.08453627
5	100	1555432816	-389.729	-16.775	-844.362	-2.073171	0.1219512	0.1219512	-250	127	614	0.1766377	0.4313181	0.8807032	-0.0844142
5	100	1555432816	-379.237	-18.91	-842.105	-2.317073	0.3658537	0	-250	128	612	0.1773638	0.430372	0.8810083	-0.08453627
5	100	1555432816	-379.664	-17.629	-847.29	-2.439024	0.2439024	0	-251	129	615	0.1776343	0.4300669	0.8810999	-0.08456679
5	100	1555432816	-377.712	-17.629	-852.353	-2.560976	0.2439024	0.4878049	-248	127	613	0.17729	0.4306162	0.8808863	-0.08471938
5	100	1555432816	-381.921	-18.117	-849.974	-2.804878	0.6097561	0.3658537	-250	128	614	0.1781815	0.429548	0.881222	-0.08478042
5	100	1555432816	-388.631	-21.716	-850.279	-2.682927	0.4878049	0.4878049	-248	128	615	0.1779926	0.4297922	0.8810999	-0.08520768
5	100	1555432816	-386.923	-23.241	-845.46	-2.682927	0.4878049	0.4878049	-249	128	614	0.1784486	0.4289987	0.881344	-0.08572649
5	100	1555432816	-389.302	-24.827	-846.741	-2.682927	0.8536586	0.4878049	-249	128	613	0.1786998	0.4286325	0.8814356	-0.08609272
5	100	1555432816	-394.182	-23.363	-850.462	-2.439024	0.9756098	0	-250	127	617	0.1794681	0.4273507	0.8818629	-0.08648945
5	100	1555432816	-388.875	-17.629	-849.12	-2.560976	0.9756098	0.6097561	-250	126	613	0.180216	0.4263741	0.8821681	-0.08664205
5	100	1555432816	-382.348	-23.973	-870.775	-2.682927	1.219512	0.2439024	-249	126	615	0.1800423	0.4266182	0.8820765	-0.0867336
5	100	1555432816	-393.633	-22.692	-864.431	-2.804878	1.219512	0.4878049	-249	126	613	0.1806576	0.4257332	0.8823512	-0.08700827
5	100	1555432816	-388.997	-21.96	-851.56	-3.04878	1.341463	0.3658537	-250	128	615	0.1810141	0.425367	0.8824427	-0.08713035
5	100	1555432816	-389.546	-25.132	-864.858	-3.292683	1.219512	0.4878049	-249	127	613	0.181075	0.4252144	0.8825037	-0.08713035
5	100	1555432816	-393.938	-25.742	-847.351	-3.292683	1.585366	0.2439024	-249	127	614	0.1814384	0.4247871	0.8826258	-0.0872219
5	100	1555432816	-393.328	-23.18	-864.858	-3.170732	1.829268	0.2439024	-247	128	613	0.1812716	0.4250923	0.8825343	-0.08700827
5	100	1555432816	-395.89	-23.851	-860.283	-2.804878	2.073171	0.1219512	-249	127	615	0.1809917	0.425306	0.8825037	-0.08685568
5	100	1555432816	-399.611	-23.058	-864.614	-2.804878	2.682927	0.4878049	-249	128	612	0.1816969	0.4244209	0.8828089	-0.08661153
5	100	1555432816	-397.781	-19.581	-855.342	-3.04878	2.804878	0.1219512	-250	128	615	0.1819917	0.4239631	0.882992	-0.08636738
5	100	1555432816	-391.681	-16.958	-866.322	-3.04878	3.04878	0.1219512	-249	126	614	0.1817749	0.4243599	0.88287	-0.08612324
5	100	1555432816	-392.535	-17.934	-860.344	-2.560976	3.414634	0.2439024	-250	127	614	0.1817854	0.4243599	0.8829005	-0.08578753
5	100	1555432816	-387.594	-11.346	-831.918	-2.682927	3.170732	0.2439024	-250	128	613	0.1817527	0.4243904	0.882931	-0.08539079
5	100	1555432816	-382.165	-16.043	-844.484	-2.804878	3.414634	0.4878049	-250	126	613	0.1816621	0.4244209	0.8829615	-0.08511613
5	100	1555432816	-386.496	-6.588	-822.341	-2.439024	3.780488	0.3658537	-250	126	613	0.1818694	0.4244209	0.882992	-0.08435316
5	100	1555432816	-376.187	-12.078	-835.7	-2.439024	3.170732	0.2439024	-251	127	614	0.1808082	0.4260079	0.8825037	-0.08374279
5	100	1555432816	-378.078	-17.934	-846.07	-2.439024	3.170732	0.3658537	-250	128	615	0.1797825	0.4272286	0.8821375	-0.08359019
5	100	1555432816	-378.81	-19.398	-820.755	-2.560976	2.804878	0.2439024	-250	128	612	0.1788943	0.4284188	0.8817407	-0.08359019
5	100	1555432816	-373.32	-18.788	-860.832	-2.439024	2.926829	0.2439024	-250	127	615	0.1776893	0.4297616	0.8813135	-0.08377331
5	100	1555432816	-376.126	-14.518	-859.734	-2.195122	2.439024	0.3658537	-250	128	614	0.1768557	0.4307688	0.8809778	-0.08389539
5	100	1555432816	-361.059	-14.152	-843.874	-2.439024	2.439024	0	-251	127	615	0.1762601	0.4316538	0.8806726	-0.08380383
5	100	1555432816	-360.449	-22.265	-831.613	-2.317073	1.95122	0.1219512	-249	127	614	0.1758158	0.4321726	0.8804895	-0.08398694
5	100	1555432816	-369.904	-19.825	-820.938	-2.195122	1.829268	0.1219512	-250	129	616	0.175187	0.4325694	0.8803675	-0.08453627
5	100	1555432816	-370.758	-25.132	-831.674	-2.317073	1.585366	0.2439024	-249	127	614	0.1748718	0.4329356	0.8802149	-0.0849025
5	100	1555432816	-377.834	-16.592	-853.39	-2.439024	0.9756098	0	-251	128	615	0.174766	0.4330882	0.8801844	-0.08465835
5	100	1555432816	-378.871	-14.762	-843.081	-2.439024	0.9756098	0	-250	127	613	0.1753956	0.4324168	0.880398	-0.08456679
5	100	1555432816	-362.157	-20.557	-858.209	-2.439024	0.8536586	-0.1219512	-252	129	615	0.1743906	0.4337291	0.8799402	-0.08468886
5	100	1555432816	-373.991	-18.91	-839.116	-2.317073	0.6097561	0.2439024	-251	128	611	0.1744794	0.4334239	0.8800318	-0.08511613
5	100	1555432816	-365.817	-26.413	-840.824	-2.560976	0.4878049	0.2439024	-250	127	615	0.1741609	0.4337596	0.8798791	-0.08563494
5	100	1555432816	-380.884	-25.742	-853.573	-2.560976	0	0.2439024	-249	127	613	0.1742148	0.4338511	0.8797876	-0.08600116
5	100	1555432816	-381.555	-18.361	-849.12	-2.560976	0.3658537	0.2439024	-250	129	615	0.1746515	0.4331797	0.8800318	-0.08600116
5	100	1555432816	-383.202	-21.594	-849.791	-2.682927	0.2439024	0.2439024	-250	128	612	0.175511	0.43202	0.880398	-0.08633687
5	100	1555432816	-399.184	-25.01	-860.954	-2.804878	0.3658537	0.2439024	-251	128	615	0.1765694	0.4309519	0.8807337	-0.08609272
5	100	1555432816	-374.235	-78.202	-785.253	-1.585366	0.8536586	-0.1219512	-250	127	614	0.1766217	0.4300668	0.8810082	-0.08758812
5	100	1555432816	-389.119	1.891	-840.946	-1.585366	0.6097561	-0.2439024	-250	127	614	0.1778363	0.4300363	0.8810388	-0.08493301
5	100	1555432816	-386.313	-69.357	-829.783	-3.04878	0.9756098	0.2439024	-250	127	615	0.1785229	0.4286325	0.8814356	-0.08645894
5	100	1555432816	-377.59	30.378	-835.517	-2.195122	0.3658537	0.1219512	-251	130	615	0.1767727	0.4314402	0.8804895	-0.08572649
5	100	1555432816	-374.235	-11.224	-853.085	-2.560976	1.219512	0.3658537	-250	128	614	0.1764686	0.4315317	0.880398	-0.08682516
5	100	1555432816	-366.793	-16.043	-801.601	-1.707317	0.8536586	-0.2439024	-250	129	615	0.1766937	0.4307993	0.8806116	-0.08783227
5	100	1555432816	-384.3	-17.202	-829.783	-2.073171	1.463415	0.2439024	-247	128	614	0.1765631	0.4315622	0.8803369	-0.08709983
5	100	1555432816	-348.127	-15.555	-889.014	-3.170732	0.8536586	0.3658537	-250	129	615	0.1756344	0.4334849	0.879635	-0.08651997
5	100	1555432816	-408.639	-24.766	-867.298	-2.926829	2.195122	0.4878049	-248	127	614	0.1768883	0.4320505	0.8800623	-0.08679464
5	100	1555432816	-393.938	-8.418	-772.138	-1.097561	1.097561	0	-250	128	615	0.1801571	0.428602	0.881222	-0.0853908
5	100	1555432817	-383.08	-8.723001	-871.019	-1.707317	0.2439024	0.2439024	-249	127	613	0.1784027	0.431135	0.8803369	-0.08545183
5	100	1555432817	-376.492	-30.256	-869.616	-2.439024	0.4878049	0.3658537	-250	127	614	0.1774288	0.4325694	0.8798181	-0.0855739
5	100	1555432817	-379.664	-20.923	-878.217	-2.682927	0.9756098	0.3658537	-248	127	613	0.1777228	0.4324168	0.8798486	-0.08542131
5	100	1555432817	-381.616	-11.834	-905.606	-3.170732	1.463415	0.4878049	-251	128	612	0.1781036	0.4321116	0.8799097	-0.08554338
5	100	1555432817	-400.526	-21.777	-864.004	-3.170732	2.073171	0.2439024	-248	126	613	0.179717	0.4297616	0.8806726	-0.08615375
5	100	1555432817	-398.025	-27.328	-849.242	-3.292683	1.707317	0.2439024	-249	128	614	0.1811	0.4275643	0.8813745	-0.08700827
5	100	1555432817	-408.578	-39.162	-855.037	-2.439024	2.073171	0.1219512	-248	126	612	0.1817287	0.4266488	0.8816797	-0.08709983
5	100	1555432817	-407.602	-29.768	-872.361	-1.95122	1.463415	0	-249	129	615	0.1820877	0.4265877	0.8817102	-0.08633687
5	100	1555432817	-401.929	-16.104	-865.102	-1.585366	1.585366	0.6097561	-247	128	613	0.181561	0.4277474	0.8813135	-0.08575701
5	100	1555432817	-399.062	-34.465	-846.924	-1.585366	1.707317	0.1219512	-250	128	614	0.18128	0.4276254	0.881344	-0.08664205
5	100	1555432817	-383.751	-24.034	-823.439	-2.195122	2.073171	0.3658537	-248	129	613	0.1804269	0.4285714	0.8810083	-0.08716086
5	100	1555432817	-385.947	-29.585	-854.915	-2.560976	1.95122	0.3658537	-251	129	614	0.1791269	0.4300058	0.88052	-0.08771019
5	100	1555432817	-386.13	-21.838	-839.97	-2.439024	1.585366	0.4878049	-249	128	614	0.1785496	0.4307077	0.8802759	-0.08789331
5	100	1555432817	-383.507	-26.169	-843.325	-2.682927	1.463415	0.4878049	-250	127	615	0.1784673	0.4308603	0.8802149	-0.08792382
5	100	1555432817	-379.176	-16.165	-850.34	-2.682927	1.829268	0.3658537	-248	129	611	0.178282	0.4313791	0.8800318	-0.08758812
5	100	1555432817	-379.298	-25.376	-838.872	-2.804878	1.463415	0.3658537	-249	128	614	0.1779348	0.4316843	0.8799402	-0.08771019
5	100	1555432817	-373.991	-24.644	-843.203	-2.439024	1.707317	0.2439024	-247	128	612	0.1771154	0.4330576	0.8794519	-0.08749656
5	100	1555432817	-374.601	-21.838	-842.288	-2.804878	1.097561	0.2439024	-250	127	615	0.1770314	0.4332713	0.8793908	-0.0872219
5	100	1555432817	-380.64	-22.936	-841.678	-2.804878	1.341463	0.3658537	-248	126	613	0.1771386	0.4333323	0.8793603	-0.08700827
5	100	1555432817	-397.537	-35.014	-856.379	-2.560976	1.95122	0.1219512	-250	128	613	0.1770939	0.4333629	0.8793604	-0.08694724
5	100	1555432817	-369.965	-43.554	-822.646	-2.195122	0.9756098	0.1219512	-247	128	614	0.1761325	0.4346446	0.8789026	-0.08713035
5	100	1555432817	-388.082	0.183	-866.505	-3.414634	0.9756098	0.3658537	-249	129	614	0.1764282	0.4343394	0.8789941	-0.08713035
5	100	1555432817	-373.442	-16.226	-832.101	-2.926829	0.4878049	0.2439024	-248	128	615	0.1765403	0.4346446	0.8788719	-0.08661152
5	100	1555432817	-375.516	-22.204	-871.507	-3.170732	0.8536586	0.3658537	-249	128	615	0.1766036	0.4347362	0.878811	-0.08664205
5	100	1555432817	-386.557	-19.276	-839.116	-2.926829	0.6097561	0.2439024	-249	127	614	0.1771889	0.4340342	0.8790551	-0.08648945
5	100	1555432817	-376.248	-19.276	-839.726	-2.926829	0.4878049	0.2439024	-250	126	615	0.1774556	0.4338816	0.8790857	-0.0863979
5	100	1555432817	-393.816	-18.971	-844.728	-2.926829	0.8536586	0.3658537	-247	126	615	0.1782648	0.432905	0.8794214	-0.08621479
5	100	1555432817	-393.023	-20.679	-848.998	-2.804878	0.4878049	0.4878049	-249	129	616	0.1784947	0.4325999	0.8795129	-0.08633687
5	100	1555432817	-381.25	-24.644	-861.93	-3.292683	0.7317073	0.6097561	-247	128	610	0.1792724	0.4314097	0.8798791	-0.08694723
5	100	1555432817	-394.487	-14.213	-843.691	-2.682927	0.8536586	0.4878049	-249	127	614	0.1794464	0.4313486	0.8799097	-0.08658101
5	100	1555432817	-378.322	-18.239	-848.632	-2.317073	0.7317073	0.2439024	-247	126	612	0.1801789	0.4304636	0.8801844	-0.08667257
5	100	1555432817	-387.167	-17.934	-884.5	-3.04878	1.341463	0.2439024	-249	128	613	0.1801119	0.4305857	0.8801233	-0.08682516
5	100	1555432817	-396.622	-17.568	-831.003	-2.682927	1.097561	0.6097561	-247	127	614	0.1809726	0.429487	0.8804895	-0.08676412
5	100	1555432817	-384.727	-21.838	-849.364	-2.682927	1.341463	0.2439024	-249	128	615	0.1807332	0.4299752	0.8803063	-0.08670308
5	100	1555432817	-393.999	-21.045	-857.538	-2.926829	1.585366	0.2439024	-248	126	615	0.1809186	0.4295785	0.880459	-0.0867336
5	100	1555432817	-394.426	-29.158	-844.728	-2.926829	1.463415	0.6097561	-249	129	614	0.1805784	0.4298227	0.8803675	-0.08716086
5	100	1555432817	-380.396	-25.071	-857.05	-2.926829	1.585366	0.4878049	-248	127	613	0.1798916	0.4308908	0.8799707	-0.08731346
5	100	1555432817	-396.5	-17.629	-861.259	-2.560976	1.585366	0.4878049	-249	129	614	0.1800537	0.4305551	0.8800928	-0.08740501
5	100	1555432817	-382.287	-14.64	-854.122	-2.926829	2.317073	0.3658537	-248	128	614	0.1798574	0.4308298	0.8800318	-0.08706932
5	100	1555432817	-380.884	-21.106	-848.327	-2.804878	1.829268	0.4878049	-249	128	615	0.1794505	0.4313486	0.8798486	-0.08719138
5	100	1555432817	-385.764	-21.594	-853.451	-2.439024	1.707317	0.2439024	-246	129	614	0.1788838	0.4320505	0.8796045	-0.08734398
5	100	1555432817	-393.328	-20.191	-851.011	-2.560976	1.829268	0.3658537	-250	128	614	0.179143	0.4314707	0.8798181	-0.08752709
5	100	1555432817	-381.311	-24.461	-847.168	-2.804878	2.317073	0.6097561	-246	128	604	0.1785763	0.4322337	0.8795739	-0.08737449
5	100	1555432817	-384.788	-24.4	-849.547	-2.804878	1.95122	0.3658537	-250	130	614	0.1787896	0.431959	0.8796655	-0.08737449
5	100	1555432817	-383.568	-18.666	-845.46	-2.560976	1.707317	0.3658537	-246	128	614	0.1791738	0.4315012	0.8798181	-0.08731346
5	100	1555432817	-381.616	-17.507	-848.876	-2.926829	2.195122	0.3658537	-248	128	616	0.1790591	0.4316233	0.8797876	-0.08725242
5	100	1555432817	-382.775	-21.96	-844.423	-2.560976	1.95122	0.1219512	-246	128	614	0.1787763	0.43202	0.8796655	-0.08709983
5	100	1555432817	-376.858	-22.814	-853.756	-2.682927	1.829268	0.4878049	-248	127	615	0.1787698	0.4322337	0.8795739	-0.08697775
5	100	1555432817	-386.008	-18.544	-842.227	-2.926829	2.073171	0.4878049	-248	127	613	0.1786073	0.4322947	0.8795739	-0.08700827
5	100	1555432817	-383.873	-25.986	-849.913	-2.804878	1.95122	0.4878049	-250	127	615	0.1780766	0.4329661	0.8793603	-0.08691671
5	100	1555432817	-384.483	-22.936	-847.168	-2.682927	1.95122	0.2439024	-247	128	613	0.177935	0.4332408	0.8792688	-0.08676413
5	100	1555432817	-377.346	-20.008	-846.619	-2.682927	1.707317	0.3658537	-251	127	614	0.17785	0.4333934	0.8792077	-0.08679464
5	100	1555432817	-377.041	-15.555	-843.203	-2.682927	1.463415	0.3658537	-248	128	615	0.1775361	0.4340342	0.8789941	-0.0863979
5	100	1555432817	-379.176	-17.812	-847.961	-2.926829	1.707317	0.6097561	-250	127	615	0.1778554	0.4336985	0.8791162	-0.08618427
5	100	1555432817	-374.906	-17.934	-839.726	-2.682927	1.341463	0.6097561	-247	127	613	0.1778856	0.433668	0.8791162	-0.08627582
5	100	1555432817	-386.801	-24.339	-846.009	-2.560976	1.341463	0.4878049	-250	129	615	0.1774669	0.4342479	0.8789026	-0.0863979
5	100	1555432817	-385.093	-24.034	-841.739	-2.560976	1.585366	0.1219512	-248	128	613	0.1777969	0.4336069	0.8791161	-0.08676411
5	100	1555432817	-386.74	-26.962	-850.218	-2.682927	1.95122	0.2439024	-248	128	615	0.1775582	0.4336375	0.8791162	-0.08709983
5	100	1555432817	-389.729	-24.705	-862.418	-2.804878	1.829268	0.3658537	-249	128	613	0.1775831	0.4334544	0.8791772	-0.08734398
5	100	1555432817	-386.13	-20.374	-849.303	-2.439024	1.829268	0.1219512	-249	129	615	0.1782665	0.432783	0.8793908	-0.08713035
5	100	1555432817	-386.618	-19.154	-856.501	-2.804878	1.829268	0.3658537	-247	127	613	0.1782424	0.4329966	0.8793298	-0.0867336
5	100	1555432817	-381.311	-13.969	-845.521	-2.560976	1.829268	0.3658537	-250	128	614	0.1786619	0.4326914	0.8794519	-0.08615375
5	100	1555432817	-382.47	-16.348	-847.29	-2.682927	1.829268	0.2439024	-248	128	615	0.1786174	0.4327219	0.8794519	-0.08609272
5	100	1555432817	-388.326	-23.546	-846.497	-2.804878	1.829268	0.1219512	-250	127	615	0.178561	0.432783	0.8794214	-0.08621479
5	100	1555432817	-384.727	-22.814	-833.26	-2.439024	1.707317	0.3658537	-246	128	615	0.1785957	0.4324778	0.8795434	-0.08642842
5	100	1555432817	-387.899	-21.106	-852.475	-2.682927	1.95122	0.6097561	-248	127	614	0.1784256	0.4327219	0.8794519	-0.08648945
5	100	1555432817	-387.106	-25.071	-848.876	-2.804878	1.707317	0.4878049	-248	128	613	0.1781511	0.4329661	0.8793603	-0.08676412
5	100	1555432817	-382.409	-25.925	-867.176	-2.804878	1.95122	0.1219512	-249	129	613	0.1774986	0.433668	0.8791161	-0.0870693
5	100	1555432817	-376.248	-21.533	-860.71	-2.560976	1.585366	0.3658537	-249	130	612	0.1774998	0.433668	0.8790857	-0.08737449
5	100	1555432817	-375.821	-18.727	-833.321	-2.682927	1.829268	0.1219512	-249	130	614	0.177355	0.4338816	0.8790246	-0.0872219
5	100	1555432817	-384.727	-20.13	-846.192	-2.682927	1.829268	0.2439024	-250	128	614	0.1773809	0.4337596	0.8790857	-0.08716086
5	100	1555432817	-381.799	-14.213	-822.89	-2.804878	1.585366	0.3658537	-249	128	614	0.1778306	0.4332408	0.8792688	-0.08697775
5	100	1555432817	-381.921	-24.522	-839.604	-2.560976	1.707317	0.1219512	-247	127	615	0.1778902	0.4332408	0.8792688	-0.08685568
5	100	1555432817	-389.729	-24.4	-856.806	-2.682927	1.829268	0.3658537	-250	129	615	0.1777927	0.4334849	0.8791772	-0.08676412
5	100	1555432817	-391.437	-16.958	-851.316	-2.560976	1.829268	0.2439024	-248	128	614	0.1782696	0.4329966	0.8793603	-0.08636738
5	100	1555432817	-376.126	-23.058	-866.566	-2.804878	1.341463	0.4878049	-249	128	614	0.177852	0.4335459	0.8791772	-0.08633687
5	100	1555432817	-375.577	-16.47	-859.856	-2.804878	1.585366	0.2439024	-248	128	612	0.1776366	0.4338816	0.8790551	-0.08633687
5	100	1555432817	-375.089	-20.374	-836.615	-2.560976	1.707317	0.4878049	-249	128	615	0.1774635	0.4340953	0.8789636	-0.0865505
5	100	1555432817	-372.161	-17.873	-848.022	-2.804878	1.585366	0.3658537	-246	127	614	0.1769679	0.4348277	0.8787194	-0.08636738
5	100	1555432817	-387.472	-21.106	-847.839	-2.317073	1.463415	0.3658537	-250	128	614	0.1775262	0.4342479	0.8789026	-0.08627582
5	100	1555432817	-383.202	-25.437	-847.107	-2.926829	1.707317	0.1219512	-248	127	612	0.1776088	0.4339427	0.8790247	-0.08639791
5	100	1555432817	-390.339	-24.278	-847.412	-2.804878	1.707317	0.3658537	-249	128	615	0.1779668	0.4332713	0.8792382	-0.08685568
5	100	1555432817	-390.644	-17.568	-846.07	-2.804878	1.707317	0.6097561	-248	128	615	0.1783804	0.4326304	0.8794519	-0.08703879
5	100	1555432817	-391.132	-18.117	-860.954	-2.682927	1.463415	0.3658537	-250	128	615	0.1783188	0.4325999	0.8794824	-0.08700827
5	100	1555432817	-380.152	-19.032	-844.24	-2.560976	1.707317	0.2439024	-247	128	612	0.1787409	0.4322947	0.8795739	-0.0867336
5	100	1555432817	-380.274	-22.265	-852.231	-2.560976	1.829268	0.3658537	-250	129	615	0.1788363	0.432081	0.8796655	-0.08667257
5	100	1555432817	-386.069	-18.056	-841.19	-2.804878	1.463415	0.3658537	-248	127	615	0.1790347	0.4318064	0.879757	-0.08670308
5	100	1555432817	-384.361	-22.082	-847.168	-2.804878	1.585366	0.4878049	-250	129	614	0.1783689	0.4328135	0.8794214	-0.08645894
5	100	1555432817	-392.901	-23.058	-847.778	-2.682927	2.195122	0.4878049	-247	128	613	0.1784377	0.4326914	0.8794824	-0.08630635
5	100	1555432817	-388.57	-20.191	-852.353	-2.439024	2.195122	0.2439024	-248	129	613	0.1786696	0.4324473	0.8795434	-0.08642842
5	100	1555432817	-373.32	-20.374	-858.087	-2.439024	1.707317	0.3658537	-248	129	613	0.1782103	0.4330271	0.8793603	-0.08633687
5	100	1555432817	-382.287	-19.825	-853.451	-2.560976	1.95122	0.3658537	-250	128	612	0.1780791	0.4331187	0.8793298	-0.08645894
5	100	1555432817	-368.623	-20.191	-844.362	-2.439024	1.95122	0.4878049	-248	127	614	0.177935	0.4333018	0.8792688	-0.08645894
5	100	1555432817	-380.274	-20.801	-845.887	-2.560976	1.707317	0.3658537	-250	128	614	0.1772955	0.4340342	0.8790246	-0.08658101
5	100	1555432817	-384.239	-22.082	-847.168	-2.682927	1.585366	0.2439024	-247	127	612	0.1776032	0.4336985	0.8791162	-0.08670308
5	100	1555432817	-383.263	-24.156	-844.972	-2.682927	1.829268	0.2439024	-250	128	613	0.177618	0.4336985	0.8791162	-0.08667257
5	100	1555432817	-382.531	-24.888	-847.595	-2.682927	1.707317	0.3658537	-248	127	612	0.1775564	0.433607	0.8791467	-0.08694723
5	100	1555432817	-380.213	-18.178	-849.608	-2.560976	1.585366	0.2439024	-250	129	614	0.1774988	0.4337291	0.8791162	-0.08676412
5	100	1555432818	-384.788	-23.668	-852.414	-2.682927	2.195122	0.1219512	-249	128	611	0.1775396	0.4335765	0.8791772	-0.08682516
5	100	1555432818	-378.993	-17.324	-852.902	-2.682927	1.95122	0.3658537	-250	127	615	0.1779579	0.4330271	0.8793603	-0.08685568
5	100	1555432818	-380.152	-18.971	-845.033	-2.804878	1.829268	0.2439024	-248	128	613	0.1773365	0.4338511	0.8790857	-0.08679464
5	100	1555432818	-383.202	-23.668	-843.874	-2.439024	1.95122	0.6097561	-250	127	613	0.1771571	0.4338816	0.8790857	-0.08700827
5	100	1555432818	-382.531	-20.252	-843.203	-2.560976	1.463415	0.1219512	-247	128	614	0.1774948	0.4335765	0.8791772	-0.08691671
5	100	1555432818	-383.08	-25.62	-843.264	-2.682927	1.829268	0.6097561	-250	128	614	0.1774372	0.433668	0.8791467	-0.0868862
5	100	1555432818	-382.287	-25.986	-854.183	-2.804878	1.707317	0.3658537	-248	129	613	0.1775396	0.4335765	0.8791772	-0.08682516
5	100	1555432818	-383.324	-18.605	-843.752	-2.804878	1.585366	0.3658537	-251	127	614	0.1776799	0.4332713	0.8792993	-0.08682516
5	100	1555432818	-379.786	-20.679	-848.144	-2.682927	1.707317	0.3658537	-248	127	612	0.177697	0.4333323	0.8792688	-0.08679464
5	100	1555432818	-382.287	-13.054	-854.366	-2.804878	1.585366	0.1219512	-251	128	613	0.1777034	0.4335765	0.8791772	-0.08648945
5	100	1555432818	-381.738	-20.984	-848.754	-2.560976	1.219512	0.4878049	-247	127	613	0.177818	0.4334239	0.8792382	-0.0863979
5	100	1555432818	-382.043	-23.302	-851.987	-2.926829	1.463415	0.3658537	-249	129	612	0.1775302	0.4338511	0.8790857	-0.0863979
5	100	1555432818	-389.729	-20.496	-828.929	-2.804878	1.707317	0.2439024	-249	128	613	0.178077	0.4330576	0.8793603	-0.08645894
5	100	1555432818	-382.47	-23.851	-835.151	-2.682927	1.707317	0.7317073	-250	127	614	0.1781589	0.4328135	0.8794519	-0.08658101
5	100	1555432818	-393.816	-20.008	-868.274	-2.804878	1.707317	0.3658537	-250	128	604	0.1784207	0.4326304	0.8795129	-0.08633687
5	100	1555432818	-384.849	-10.858	-855.586	-2.682927	1.585366	0.3658537	-249	129	613	0.1787645	0.4323252	0.879635	-0.08590961
5	100	1555432818	-378.078	-24.766	-874.557	-2.804878	1.829268	0.2439024	-249	125	613	0.1783397	0.4330271	0.8793908	-0.08575701
5	100	1555432818	-384.849	-22.57	-850.706	-2.560976	1.463415	0.3658537	-248	129	612	0.1783044	0.4327525	0.8794824	-0.08627582
5	100	1555432818	-377.834	-22.509	-843.996	-2.682927	1.707317	0.2439024	-249	128	612	0.1777625	0.4330576	0.8793908	-0.08679464
5	100	1555432818	-381.616	-28.792	-847.29	-2.560976	1.829268	0.2439024	-250	129	613	0.1777946	0.4330882	0.8793603	-0.0868862
5	100	1555432818	-387.045	-24.156	-847.473	-2.804878	2.073171	0.3658537	-249	127	612	0.1778643	0.4329356	0.8794214	-0.0868862
5	100	1555432818	-384.422	-23.363	-848.449	-2.560976	2.073171	0.3658537	-249	130	612	0.1779909	0.4327219	0.8795129	-0.08676412
5	100	1555432818	-386.191	-22.814	-849.12	-2.804878	1.707317	0.4878049	-249	129	612	0.1780502	0.4326914	0.8795129	-0.08679464
5	100	1555432818	-382.836	-16.287	-848.998	-2.317073	1.829268	0.1219512	-249	126	612	0.1782548	0.4321726	0.8797265	-0.08679464
5	100	1555432818	-386.069	-24.217	-857.477	-2.804878	1.707317	0.2439024	-249	128	614	0.1782543	0.4321421	0.8797266	-0.08694724
5	100	1555432818	-376.37	-17.629	-845.643	-2.804878	1.95122	0.4878049	-250	128	613	0.1780403	0.4324473	0.879635	-0.08679464
5	100	1555432818	-370.941	-21.289	-860.161	-2.926829	1.707317	0.3658537	-250	128	614	0.1779043	0.432844	0.8794824	-0.08664205
5	100	1555432818	-388.692	-20.008	-831.735	-2.682927	1.585366	0.1219512	-250	128	612	0.1782628	0.4324168	0.879635	-0.08648945
5	100	1555432818	-375.028	-21.472	-839.36	-2.804878	1.95122	0.2439024	-249	128	610	0.177777	0.4331797	0.8793908	-0.08615375
5	100	1555432818	-390.034	-22.021	-850.584	-2.804878	1.463415	0.3658537	-250	129	613	0.1780304	0.4326914	0.8795739	-0.08621479
5	100	1555432818	-380.823	-16.836	-852.78	-2.682927	1.707317	0.1219512	-249	128	613	0.1776619	0.4333628	0.8793298	-0.08609272
5	100	1555432818	-376.248	-21.411	-866.139	-2.682927	1.707317	0.2439024	-251	128	614	0.1772281	0.4340037	0.8791162	-0.08594012
5	100	1555432818	-378.444	-17.202	-853.329	-2.804878	1.463415	0.3658537	-248	130	615	0.1770082	0.4341868	0.8790551	-0.08609272
5	100	1555432818	-369.172	-17.019	-836.554	-2.926829	1.585366	0.4878049	-250	127	613	0.1770378	0.4341868	0.8790551	-0.08603168
5	100	1555432818	-383.385	-21.594	-853.085	-2.682927	1.707317	0.3658537	-249	129	615	0.1774113	0.4334849	0.8792993	-0.08630635
5	100	1555432818	-388.326	-18.117	-839.116	-2.804878	1.585366	0.2439024	-250	130	612	0.1775431	0.4333934	0.8793298	-0.08618427
5	100	1555432818	-385.398	-21.594	-840.214	-2.926829	1.707317	0.4878049	-249	130	614	0.177728	0.4330576	0.8794519	-0.08624531
5	100	1555432818	-393.145	-21.533	-854.366	-2.926829	1.585366	0.4878049	-251	129	613	0.1778845	0.432783	0.8795434	-0.08636738
5	100	1555432818	-381.128	-22.448	-848.876	-2.804878	1.341463	0.2439024	-249	127	614	0.1775863	0.4332713	0.8793603	-0.0863979
5	100	1555432818	-378.505	-21.35	-854.244	-2.682927	1.707317	0.2439024	-250	128	612	0.177369	0.433546	0.8792688	-0.08639791
5	100	1555432818	-380.823	-20.13	-856.013	-2.682927	1.463415	0.4878049	-248	129	614	0.1775542	0.4332103	0.8793908	-0.08645894
5	100	1555432818	-378.444	-22.387	-848.571	-2.560976	1.829268	0.4878049	-249	128	614	0.1774351	0.4332103	0.8793908	-0.08670308
5	100	1555432818	-381.616	-23.302	-852.597	-2.560976	1.463415	0.4878049	-249	131	611	0.1779862	0.4326304	0.8795739	-0.08661153
5	100	1555432818	-382.653	-19.642	-842.959	-2.682927	1.341463	0.3658537	-249	127	610	0.177981	0.4324778	0.879635	-0.08676412
5	100	1555432818	-381.189	-19.398	-851.133	-2.560976	1.341463	0.3658537	-250	128	612	0.1780604	0.4325999	0.8795739	-0.08661153
5	100	1555432818	-384.91	-25.986	-849.364	-2.439024	1.463415	0.2439024	-250	128	612	0.1778944	0.4325694	0.8796045	-0.08679464
5	100	1555432818	-385.764	-24.4	-845.582	-2.560976	1.707317	0.2439024	-249	129	613	0.1778053	0.4325999	0.8796045	-0.08682516
5	100	1555432818	-385.154	-17.69	-854.61	-2.926829	1.219512	0.3658537	-250	129	613	0.1778872	0.4328135	0.8795129	-0.08651997
5	100	1555432818	-385.52	-16.165	-851.255	-2.926829	1.585366	0.6097561	-249	127	613	0.1778299	0.4329356	0.8794824	-0.08633687
5	100	1555432818	-380.152	-14.762	-843.508	-2.682927	1.585366	0.2439024	-249	129	613	0.178415	0.4321726	0.879757	-0.08615375
5	100	1555432818	-374.967	-22.326	-848.998	-2.926829	1.097561	0.3658537	-249	126	614	0.1775984	0.4332408	0.8793909	-0.0862148
5	100	1555432818	-379.847	-23.607	-848.51	-2.682927	1.585366	0.3658537	-249	128	614	0.1772816	0.433607	0.8792383	-0.08658102
5	100	1555432818	-385.825	-17.69	-826.672	-2.682927	1.219512	0.2439024	-248	129	614	0.1778026	0.4329661	0.8794519	-0.0865505
5	100	1555432818	-382.958	-24.156	-851.377	-2.682927	1.219512	0.2439024	-249	129	612	0.177726	0.432905	0.8794824	-0.08670308
5	100	1555432818	-389.485	-25.498	-847.229	-2.682927	1.341463	0.3658537	-249	129	613	0.177944	0.4326914	0.8795434	-0.08670308
5	100	1555432818	-382.958	-16.775	-849.12	-2.682927	1.463415	0.2439024	-249	127	614	0.1779169	0.4328135	0.8795129	-0.08645894
5	100	1555432818	-382.958	-17.324	-849.974	-2.926829	1.341463	0.2439024	-249	130	613	0.1779886	0.4327219	0.8795434	-0.08645894
5	100	1555432818	-380.091	-13.42	-858.026	-2.682927	1.097561	0.2439024	-249	128	613	0.1777533	0.4333934	0.8792993	-0.0860622
5	100	1555432818	-382.592	-20.435	-851.072	-2.804878	1.463415	0.3658537	-248	128	614	0.1778557	0.4332713	0.8793298	-0.08615375
5	100	1555432818	-382.287	-21.106	-845.826	-2.682927	1.341463	-0.1219512	-250	128	614	0.1772442	0.4339427	0.8791162	-0.08621479
5	100	1555432818	-378.993	-19.52	-832.589	-2.682927	1.341463	0.4878049	-249	126	610	0.1775107	0.4337901	0.8791467	-0.08612324
5	100	1555432818	-379.786	-22.326	-841.983	-2.804878	1.219512	0.3658537	-249	128	613	0.1776539	0.4335154	0.8792382	-0.08627582
5	100	1555432818	-379.298	-20.801	-831.613	-2.926829	1.219512	0.2439024	-247	128	614	0.1774662	0.4337901	0.8791467	-0.08621479
5	100	1555432818	-387.594	-18.056	-864.126	-2.926829	1.097561	0.4878049	-248	129	613	0.1774773	0.4336375	0.8792077	-0.08633687
5	100	1555432818	-391.315	-24.766	-861.625	-2.560976	1.219512	0.2439024	-249	129	615	0.177273	0.4337901	0.8791467	-0.08661153
5	100	1555432818	-379.237	-20.801	-849.486	-2.804878	1.097561	0	-249	128	614	0.1775948	0.4334849	0.8792382	-0.0865505
5	100	1555432818	-378.261	-19.947	-852.78	-2.439024	1.707317	0.4878049	-249	127	613	0.177699	0.4334544	0.8792382	-0.08648945
5	100	1555432818	-386.862	-15.494	-832.101	-2.804878	1.463415	0.1219512	-248	130	611	0.1786592	0.4322031	0.8796655	-0.08642842
5	100	1555432818	-388.936	-22.143	-841.922	-2.560976	1.463415	0.4878049	-250	128	615	0.1787721	0.432081	0.8797265	-0.08618427
5	100	1555432818	-396.134	-21.289	-857.477	-2.682927	1.463415	0.3658537	-250	130	612	0.1792616	0.4316538	0.8798486	-0.0860622
5	100	1555432818	-388.997	-18.91	-851.011	-2.804878	1.219512	0	-248	127	614	0.1792177	0.4316538	0.8798486	-0.08615375
5	100	1555432818	-373.564	-27.023	-867.786	-2.682927	1.463415	0	-249	130	612	0.1785907	0.4323557	0.8796045	-0.08642842
5	100	1555432818	-381.372	-20.13	-864.126	-2.682927	1.463415	0.2439024	-249	127	612	0.1781392	0.4326609	0.8795129	-0.08676412
5	100	1555432818	-375.76	-19.886	-832.772	-2.804878	1.219512	0.3658537	-249	127	612	0.1781614	0.432844	0.8794214	-0.0867336
5	100	1555432818	-373.442	-21.838	-844.484	-2.682927	1.341463	0.1219512	-250	128	615	0.1780746	0.4329356	0.8793908	-0.08676412
5	100	1555432818	-393.45	-18.788	-825.818	-2.439024	1.707317	0.4878049	-251	129	613	0.1789114	0.4317759	0.8798181	-0.08648945
5	100	1555432818	-385.093	-20.496	-848.571	-2.682927	1.707317	0.3658537	-247	128	612	0.1787576	0.43202	0.8797265	-0.08651997
5	100	1555432818	-392.352	-23.485	-853.146	-3.04878	1.463415	0.2439024	-249	131	609	0.179126	0.4315012	0.8798791	-0.08679464
5	100	1555432818	-387.167	-17.324	-851.926	-2.804878	1.829268	0.3658537	-248	128	615	0.1794076	0.431135	0.8800012	-0.08679464
5	100	1555432818	-373.198	-17.873	-858.575	-2.804878	1.585366	0.3658537	-250	128	611	0.1783763	0.4326304	0.8795129	-0.08642842
5	100	1555432818	-379.176	-17.324	-848.022	-2.560976	1.829268	0.4878049	-249	127	614	0.1780068	0.4332408	0.8792993	-0.08630635
5	100	1555432818	-369.782	-17.08	-843.081	-2.439024	1.585366	0.3658537	-249	127	612	0.1779408	0.4335459	0.8791772	-0.08615375
5	100	1555432818	-378.261	-21.96	-850.218	-2.804878	1.219512	0.3658537	-248	129	614	0.1778836	0.433607	0.8791467	-0.08627582
5	100	1555432818	-389.241	-20.008	-840.824	-2.682927	1.219512	0.4878049	-249	128	613	0.1782253	0.4329966	0.8793603	-0.08645894
5	100	1555432818	-377.834	-21.472	-843.874	-2.682927	1.463415	0.3658537	-249	128	615	0.1781444	0.4333323	0.8792382	-0.08618427
5	100	1555432818	-384.117	-17.202	-848.632	-2.682927	1.341463	0.2439024	-252	129	612	0.1781482	0.4334849	0.8791772	-0.08603168
5	100	1555432818	-393.633	-18.422	-849.913	-2.804878	1.829268	0.1219512	-249	129	614	0.1780932	0.4337596	0.8790857	-0.08569597
5	100	1555432818	-385.337	-17.385	-848.449	-2.682927	1.463415	0.3658537	-249	127	613	0.1785821	0.4331492	0.8792993	-0.0855739
5	100	1555432818	-381.128	-18.483	-852.353	-2.804878	1.341463	0.2439024	-247	129	614	0.1779807	0.4339732	0.8789941	-0.08578753
5	100	1555432818	-382.287	-18.056	-849.913	-2.682927	1.585366	0.3658537	-248	129	612	0.1780922	0.433668	0.8791162	-0.08584857
5	100	1555432818	-382.958	-19.947	-847.778	-2.560976	1.829268	0.1219512	-248	127	615	0.1779165	0.4337596	0.8790857	-0.0860622
5	100	1555432818	-387.594	-18.422	-846.558	-2.804878	1.829268	0.3658537	-250	128	614	0.1778467	0.4338816	0.8790246	-0.08621479
5	100	1555432818	-389.485	-21.289	-849.242	-2.439024	1.707317	0.2439024	-250	130	615	0.1786372	0.4328135	0.8793908	-0.08621479
5	100	1555432818	-385.642	-22.143	-847.534	-2.804878	1.585366	0.4878049	-250	127	613	0.1784117	0.4332103	0.8792382	-0.08624531
5	100	1555432818	-385.703	-17.385	-845.765	-2.682927	1.585366	0.3658537	-249	130	614	0.1789694	0.4325083	0.8794824	-0.08612324
5	100	1555432818	-381.738	-14.396	-850.218	-2.439024	1.463415	0.3658537	-248	128	613	0.179452	0.4318674	0.879696	-0.08615375
5	100	1555432818	-386.862	-14.64	-847.534	-2.804878	1.707317	0.2439024	-249	127	615	0.1790427	0.4325083	0.8794824	-0.08597064
5	100	1555432818	-384.483	-13.786	-851.926	-2.682927	1.585366	0.3658537	-248	128	614	0.1790989	0.4324473	0.8795129	-0.08584857
5	100	1555432819	-378.81	-17.568	-851.743	-2.682927	1.585366	0	-248	127	615	0.1789148	0.4326914	0.8794214	-0.08594012
5	100	1555432819	-382.531	-24.522	-849.364	-2.804878	1.829268	0.2439024	-249	128	614	0.1783502	0.4331797	0.8792688	-0.08621479
5	100	1555432819	-385.764	-21.96	-846.802	-2.560976	1.585366	0.4878049	-248	129	612	0.1782362	0.4333018	0.8792077	-0.08645894
5	100	1555432819	-381.311	-26.108	-851.011	-2.560976	1.829268	0.2439024	-249	128	614	0.1778009	0.4337596	0.8790551	-0.08661153
5	100	1555432819	-384.544	-17.507	-845.887	-2.682927	1.707317	0.2439024	-249	129	613	0.177903	0.433668	0.8790857	-0.0865505
5	100	1555432819	-383.446	-15.982	-847.534	-2.560976	1.707317	0.2439024	-249	126	614	0.1782192	0.4332408	0.8792383	-0.08648946
5	100	1555432819	-383.568	-18.666	-852.048	-2.682927	1.707317	0.4878049	-248	127	614	0.178566	0.432844	0.8793604	-0.08651998
5	100	1555432819	-381.738	-10.553	-853.207	-2.804878	1.219512	0.2439024	-250	128	613	0.1786816	0.432783	0.8793908	-0.08627582
5	100	1555432819	-380.03	-19.215	-845.277	-2.804878	1.829268	0.2439024	-247	127	614	0.178414	0.4332408	0.8792078	-0.08639791
5	100	1555432819	-382.226	-23.668	-840.336	-2.560976	1.585366	0.2439024	-249	127	613	0.1781472	0.4333018	0.8792077	-0.08664205
5	100	1555432819	-383.019	-19.642	-844.85	-2.682927	1.585366	0.2439024	-249	127	614	0.1783063	0.4330882	0.8792688	-0.08676412
5	100	1555432819	-382.775	-24.4	-842.593	-2.560976	1.585366	0.3658537	-250	128	613	0.1777283	0.4337901	0.8790246	-0.08691671
5	100	1555432819	-381.616	-20.984	-831.674	-2.682927	1.585366	0.3658537	-248	128	613	0.1777966	0.4335459	0.8791161	-0.0870693
5	100	1555432819	-382.043	-21.594	-866.383	-2.804878	1.097561	0.3658537	-250	128	614	0.1776275	0.4339122	0.8789636	-0.08713035
5	100	1555432819	-386.496	-18.544	-856.928	-2.682927	1.707317	0	-249	128	614	0.1774691	0.4341868	0.878872	-0.08700827
5	100	1555432819	-377.468	-20.252	-850.401	-2.560976	1.463415	0.2439024	-249	129	613	0.1773362	0.4342784	0.8788415	-0.08713035
5	100	1555432819	-384.239	-16.592	-840.031	-2.804878	1.585366	0.1219512	-249	129	614	0.1780368	0.4335459	0.8790857	-0.0868862
5	100	1555432819	-376.919	-17.507	-822.524	-2.682927	1.341463	0.1219512	-248	129	613	0.1781278	0.433668	0.8790552	-0.08639791
5	100	1555432819	-386.557	-22.082	-846.924	-2.560976	1.463415	0.1219512	-250	129	615	0.17775	0.4341563	0.8789026	-0.08627582
5	100	1555432819	-392.169	-27.572	-869.494	-2.804878	1.829268	0.7317073	-248	128	613	0.1777339	0.4340647	0.8789331	-0.08645894
5	100	1555432819	-380.396	-19.642	-851.926	-2.804878	1.95122	0.4878049	-248	127	616	0.1775503	0.4345225	0.8787498	-0.08639789
5	100	1555432819	-377.102	-24.949	-873.215	-2.682927	1.707317	0.2439024	-250	128	613	0.1770935	0.4348888	0.8786279	-0.0867336
5	100	1555432819	-377.163	-15.921	-857.843	-2.560976	1.463415	0.3658537	-250	129	614	0.1771383	0.4348888	0.8786279	-0.08664205
5	100	1555432819	-375.333	-19.886	-845.887	-2.682927	1.341463	0.1219512	-249	128	612	0.1769036	0.435255	0.8785058	-0.08651997
5	100	1555432819	-384.971	-20.313	-848.998	-2.560976	1.829268	0.1219512	-248	128	614	0.1769071	0.4354686	0.8784143	-0.08636738
5	100	1555432819	-377.834	-20.13	-846.131	-2.926829	1.829268	0.4878049	-249	128	612	0.1768145	0.4353771	0.8784753	-0.0863979
5	100	1555432819	-384.483	-25.681	-845.765	-2.804878	1.95122	0.2439024	-250	129	615	0.1771815	0.4348277	0.8786584	-0.0865505
5	100	1555432819	-385.947	-19.337	-834.48	-2.682927	1.707317	0.1219512	-248	128	613	0.177706	0.4340953	0.8789026	-0.08667257
5	100	1555432819	-378.444	-18.91	-855.952	-2.804878	2.073171	0.1219512	-249	129	615	0.1778029	0.4337901	0.8790246	-0.08676412
5	100	1555432819	-391.193	-18.422	-858.209	-2.560976	2.073171	0.3658537	-250	127	613	0.1779902	0.4335459	0.8791162	-0.08667257
5	100	1555432819	-382.958	-16.531	-849.12	-2.682927	1.463415	0.4878049	-250	129	613	0.1782255	0.4334544	0.8791467	-0.08633687
5	100	1555432819	-373.381	-21.96	-847.29	-2.682927	1.95122	0.4878049	-248	128	612	0.1779696	0.4339427	0.8789636	-0.08627582
5	100	1555432819	-378.993	-23.546	-847.9	-2.804878	1.829268	0.2439024	-249	128	614	0.1773444	0.4347056	0.8786889	-0.08651997
5	100	1555432819	-382.592	-22.143	-843.752	-2.317073	1.95122	0.6097561	-250	126	614	0.1773428	0.4346446	0.8787195	-0.08651998
5	100	1555432819	-383.263	-22.082	-844.484	-2.682927	2.073171	0.3658537	-250	128	613	0.1772994	0.4347362	0.8786889	-0.08645894
5	100	1555432819	-380.64	-18.605	-842.776	-2.560976	1.463415	0.2439024	-248	129	611	0.177105	0.4347972	0.8786889	-0.0865505
5	100	1555432819	-379.481	-21.716	-853.695	-2.926829	1.707317	0.6097561	-248	127	615	0.177338	0.434431	0.878811	-0.08667257
5	100	1555432819	-382.409	-19.886	-854	-2.560976	1.463415	0.2439024	-248	128	613	0.1772634	0.434431	0.878811	-0.08682516
5	100	1555432819	-379.908	-19.032	-846.314	-2.804878	1.341463	0.3658537	-250	128	614	0.177676	0.4341258	0.8789026	-0.08658101
5	100	1555432819	-374.723	-18.544	-852.841	-2.926829	1.829268	0.6097561	-249	129	614	0.1780386	0.4336985	0.8790551	-0.08642842
5	100	1555432819	-381.006	-23.424	-840.519	-2.682927	1.341463	0.4878049	-250	128	614	0.1780388	0.433668	0.8790552	-0.08658102
5	100	1555432819	-378.81	-21.228	-847.717	-2.560976	1.097561	0.3658537	-249	127	611	0.1772278	0.4348888	0.8786279	-0.08645894
5	100	1555432819	-391.864	-23.79	-852.841	-2.682927	1.585366	0.7317073	-248	128	614	0.1775752	0.4343089	0.8788415	-0.08648945
5	100	1555432819	-380.579	-21.045	-851.621	-2.804878	1.463415	0.3658537	-249	127	610	0.1775948	0.4345225	0.87875	-0.08630635
5	100	1555432819	-372.344	-25.559	-865.041	-2.682927	1.341463	0.6097561	-251	128	616	0.1769343	0.4353465	0.8784753	-0.08630635
5	100	1555432819	-384.178	-17.263	-837.652	-2.804878	1.341463	0.4878049	-249	127	614	0.1772009	0.4350108	0.8785669	-0.08651997
5	100	1555432819	-374.052	-19.52	-827.221	-2.682927	1.585366	0.2439024	-249	128	615	0.1774015	0.4345225	0.8787498	-0.08670308
5	100	1555432819	-383.141	-26.596	-841.312	-2.682927	1.463415	0.3658537	-250	128	612	0.1775043	0.43437	0.8787805	-0.08694723
5	100	1555432819	-384.056	-15.189	-827.953	-2.682927	1.585366	0.3658537	-249	130	613	0.1778532	0.4339427	0.8789331	-0.08682517
5	100	1555432819	-382.714	-23.607	-845.216	-2.926829	1.707317	0.3658537	-248	125	612	0.1780408	0.433668	0.8790247	-0.0868862
5	100	1555432819	-386.13	-17.934	-848.022	-3.04878	1.341463	0.4878049	-251	129	614	0.1781469	0.4337596	0.8789941	-0.08651997
5	100	1555432819	-383.995	-11.956	-841.556	-2.926829	1.463415	0.3658537	-248	128	612	0.1788808	0.4328745	0.8792993	-0.08633687
5	100	1555432819	-381.738	-15.982	-849.669	-2.560976	1.585366	0.2439024	-251	130	614	0.1783831	0.4337596	0.8789941	-0.08603168
5	100	1555432819	-382.836	-14.335	-848.327	-2.560976	1.463415	0.3658537	-250	129	612	0.178614	0.4334849	0.8790857	-0.08600116
5	100	1555432819	-380.945	-19.032	-836.798	-2.439024	1.463415	0.2439024	-249	129	614	0.1788846	0.4330576	0.8792382	-0.08603168
5	100	1555432819	-382.043	-23.729	-845.094	-2.682927	1.341463	0.3658537	-249	127	614	0.1784115	0.4336375	0.8790246	-0.08627582
5	100	1555432819	-385.154	-22.143	-842.776	-2.439024	1.585366	0.6097561	-250	129	614	0.1785286	0.4334849	0.8790551	-0.08648945
5	100	1555432819	-385.398	-22.387	-841.8	-2.682927	1.463415	0	-248	127	613	0.1780487	0.4339427	0.8789026	-0.0867336
5	100	1555432819	-385.215	-23.302	-845.704	-3.04878	1.585366	0.3658537	-250	128	613	0.17787	0.4339732	0.8789026	-0.08694723
5	100	1555432819	-383.751	-15.494	-844.606	-2.804878	1.585366	0.2439024	-248	127	610	0.1781936	0.4337596	0.8789636	-0.0867336
5	100	1555432819	-387.167	-17.324	-848.022	-2.682927	1.585366	0.4878049	-250	129	615	0.1780058	0.4340342	0.878872	-0.08667257
5	100	1555432819	-381.494	-13.664	-849.608	-2.804878	1.707317	0.2439024	-246	128	612	0.1781952	0.4338511	0.8789331	-0.08658101
5	100	1555432819	-382.653	-21.777	-861.503	-2.682927	1.95122	0.2439024	-250	127	613	0.1774536	0.4348582	0.8785974	-0.08645894
5	100	1555432819	-380.518	-19.154	-824.354	-2.560976	1.585366	0.2439024	-248	129	613	0.1773826	0.4351024	0.8785058	-0.08630635
5	100	1555432819	-375.272	-22.509	-827.099	-2.682927	1.95122	0.3658537	-249	129	616	0.1775139	0.4349498	0.8785669	-0.08618427
5	100	1555432819	-378.688	-26.84	-841.19	-2.804878	1.585366	0.2439024	-248	127	613	0.1773832	0.4350719	0.8785058	-0.08645894
5	100	1555432819	-388.387	-19.154	-826.428	-2.926829	1.585366	0.2439024	-249	128	614	0.177576	0.4349498	0.8785363	-0.08636738
5	100	1555432819	-384.971	-23.546	-861.503	-2.560976	1.463415	0.3658537	-248	128	611	0.177602	0.4347056	0.8786279	-0.08661153
5	100	1555432819	-392.535	-18.666	-846.802	-2.560976	1.829268	0.4878049	-252	128	615	0.1777496	0.4345836	0.8786585	-0.08661154
5	100	1555432819	-377.956	-17.263	-833.26	-2.926829	1.707317	0.3658537	-248	126	613	0.1779099	0.434431	0.8787194	-0.08642842
5	100	1555432819	-374.052	-14.518	-838.384	-2.560976	1.341463	0.3658537	-251	127	614	0.1781273	0.4342174	0.878811	-0.08612324
5	100	1555432819	-389.546	-14.518	-827.343	-2.682927	1.463415	0	-250	129	612	0.178823	0.4334849	0.8790551	-0.08587909
5	100	1555432819	-388.326	-23.973	-835.212	-2.804878	1.829268	0.3658537	-248	129	612	0.1784212	0.4340953	0.8788415	-0.08581805
5	100	1555432819	-396.744	-22.387	-855.952	-2.804878	1.585366	0.1219512	-250	129	613	0.1784484	0.4339122	0.8789026	-0.0860622
5	100	1555432819	-388.387	-18.117	-845.338	-2.804878	1.707317	0.4878049	-250	128	615	0.1783632	0.4340647	0.8788415	-0.08609272
5	100	1555432819	-370.636	-21.228	-854.854	-2.682927	1.585366	0.2439024	-248	128	612	0.1780617	0.4345225	0.8786584	-0.08627582
5	100	1555432819	-383.446	-15.921	-849.73	-2.560976	1.463415	0.4878049	-249	129	614	0.1781323	0.4344005	0.8787194	-0.08612324
5	100	1555432819	-377.773	-15.25	-844.606	-2.804878	1.707317	0.6097561	-247	126	613	0.1778857	0.4347362	0.8785974	-0.08618427
5	100	1555432819	-379.481	-19.52	-842.166	-2.560976	1.463415	0.4878049	-250	129	614	0.1773874	0.4353771	0.8783838	-0.08615375
5	100	1555432819	-384.361	-19.276	-846.802	-2.926829	1.585366	0.4878049	-248	129	613	0.1777979	0.4348277	0.8785669	-0.0862148
5	100	1555432819	-388.57	-23.302	-844.545	-2.804878	1.95122	0.2439024	-249	129	615	0.1776929	0.4347362	0.8785974	-0.08658101
5	100	1555432819	-382.287	-20.862	-844.057	-2.560976	1.95122	0.3658537	-249	128	613	0.1780162	0.434431	0.8786889	-0.08651997
5	100	1555432819	-382.409	-15.006	-839.848	-2.804878	1.585366	0.2439024	-250	128	616	0.1788688	0.4333934	0.8790551	-0.08624531
5	100	1555432819	-383.69	-17.934	-842.41	-2.682927	1.707317	0.2439024	-250	128	611	0.1787963	0.4335154	0.8790246	-0.08609272
5	100	1555432819	-383.019	-16.592	-845.033	-2.560976	1.707317	0.1219512	-250	128	614	0.1790265	0.4332408	0.8791162	-0.0860622
5	100	1555432819	-377.956	-19.032	-835.334	-2.682927	1.707317	0.2439024	-249	129	613	0.1788393	0.4333934	0.8790551	-0.08630635
5	100	1555432819	-385.093	-20.984	-838.079	-2.682927	1.585366	0.1219512	-248	129	615	0.1780436	0.4344005	0.8787194	-0.08630635
5	100	1555432819	-386.862	-19.276	-838.75	-2.560976	1.341463	0.1219512	-249	128	612	0.178214	0.4339732	0.878872	-0.0865505
5	100	1555432819	-387.533	-19.52	-838.628	-2.926829	1.585366	0.2439024	-249	128	615	0.1783642	0.4340037	0.8788415	-0.0863979
5	100	1555432819	-391.742	-24.522	-848.754	-2.804878	1.341463	0.2439024	-248	128	612	0.1779864	0.434431	0.8786889	-0.08658101
5	100	1555432819	-387.96	-17.629	-842.288	-2.560976	1.341463	0.2439024	-251	128	614	0.1779313	0.4346752	0.8785974	-0.08639791
5	100	1555432819	-377.834	-17.934	-848.998	-2.926829	1.829268	0.4878049	-248	127	614	0.1775101	0.4354381	0.8783228	-0.0862148
5	100	1555432819	-379.42	-20.801	-841.983	-2.560976	1.585366	0.6097561	-251	128	614	0.1772575	0.4356822	0.8782617	-0.08612324
5	100	1555432819	-379.664	-19.154	-846.497	-2.682927	1.585366	0.2439024	-247	127	612	0.1771104	0.4358348	0.8782007	-0.08627582
5	100	1555432819	-377.041	-25.254	-844.911	-2.804878	1.341463	0	-250	129	615	0.1768	0.4362621	0.8780481	-0.08630635
5	100	1555432819	-381.006	-20.923	-843.447	-2.560976	1.707317	0.2439024	-248	128	614	0.1767691	0.436079	0.8781092	-0.08667257
5	100	1555432819	-382.104	-26.413	-845.277	-2.682927	1.097561	0.3658537	-250	128	613	0.176607	0.4364147	0.877987	-0.0865505
5	100	1555432819	-381.982	-20.74	-845.155	-2.804878	1.219512	0.3658537	-249	127	613	0.1770676	0.4358653	0.8781701	-0.08651997
5	100	1555432819	-382.47	-21.716	-850.462	-2.439024	1.341463	0.3658537	-250	128	615	0.1772182	0.4357738	0.8781701	-0.08667257
5	100	1555432819	-384.605	-19.398	-845.887	-2.439024	1.707317	0.4878049	-249	128	614	0.1768915	0.4361705	0.8780481	-0.08658101
5	100	1555432819	-380.701	-12.688	-850.767	-2.560976	1.829268	0.1219512	-250	127	613	0.1772167	0.4357433	0.8782007	-0.08651997
5	100	1555432819	-380.884	-21.106	-850.34	-2.682927	1.341463	0.2439024	-248	127	613	0.1772182	0.4358959	0.8781396	-0.08636738
5	100	1555432819	-381.189	-19.52	-833.504	-3.04878	1.463415	0.3658537	-250	129	614	0.1772331	0.4358959	0.8781396	-0.08633687
5	100	1555432819	-383.69	-20.191	-826.428	-2.317073	1.219512	0.6097561	-248	127	611	0.1779398	0.4350719	0.8784143	-0.08624531
5	100	1555432819	-389.729	-19.276	-852.17	-2.682927	1.463415	0.2439024	-250	128	615	0.1777352	0.435316	0.8783227	-0.08636738
5	100	1555432819	-386.313	-18.056	-853.695	-2.804878	1.707317	0.6097561	-249	128	612	0.1772479	0.4358959	0.8781396	-0.08630635
5	100	1555432819	-380.274	-21.106	-861.991	-2.560976	1.341463	0.2439024	-250	128	614	0.1771315	0.4362011	0.8780175	-0.08624531
5	100	1555432819	-377.712	-11.59	-856.806	-2.682927	1.585366	0.3658537	-249	128	614	0.1769671	0.4363231	0.877987	-0.08627582
5	100	1555432819	-377.163	-12.2	-836.127	-2.926829	1.585366	0.3658537	-251	128	614	0.1769553	0.4365978	0.8778649	-0.08615375
5	100	1555432819	-376.126	-23.424	-843.386	-2.682927	1.95122	0.4878049	-248	128	613	0.1775027	0.4358043	0.8781396	-0.08624531
5	100	1555432819	-388.814	-14.579	-823.927	-2.804878	1.463415	0.3658537	-249	127	615	0.1783054	0.4345835	0.8785667	-0.08639789
5	100	1555432819	-385.459	-20.862	-837.286	-2.560976	1.341463	0.4878049	-249	127	612	0.1781154	0.4347362	0.8785058	-0.08664205
5	100	1555432820	-388.631	-20.862	-864.797	-2.804878	1.463415	0.2439024	-251	126	614	0.1781154	0.4347362	0.8785058	-0.08664205
5	100	1555432820	-387.228	-16.592	-850.218	-2.560976	1.463415	0.3658537	-248	128	613	0.1781358	0.4350108	0.8783838	-0.08645894
5	100	1555432820	-372.039	-18.788	-857.416	-3.04878	1.707317	0.1219512	-250	129	613	0.1774575	0.4357128	0.8781701	-0.08648945
5	100	1555432820	-379.42	-13.786	-838.994	-2.439024	1.585366	0.1219512	-248	127	612	0.1775485	0.4357433	0.8781396	-0.08645894
5	100	1555432820	-381.494	-14.945	-846.314	-2.682927	1.463415	0.3658537	-250	128	613	0.177312	0.4360179	0.8780481	-0.08648945
5	100	1555432820	-376.431	-20.618	-847.473	-2.560976	1.463415	0.3658537	-248	127	614	0.1766882	0.436903	0.8777429	-0.08639791
5	100	1555432820	-377.59	-19.215	-838.201	-2.195122	1.585366	0.3658537	-249	129	615	0.1770158	0.4364757	0.8778954	-0.08633687
5	100	1555432820	-388.448	-23.119	-848.815	-2.804878	1.463415	0.3658537	-248	127	612	0.1773417	0.4360179	0.8780481	-0.08642842
5	100	1555432820	-387.228	-19.642	-843.874	-2.560976	1.463415	0.2439024	-250	127	614	0.1775203	0.4358959	0.8780786	-0.08636738
5	100	1555432820	-371.673	-22.692	-856.684	-2.682927	1.585366	0.3658537	-249	128	612	0.1770304	0.4363842	0.8779259	-0.08645894
5	100	1555432820	-382.714	-19.886	-847.656	-2.439024	1.463415	0.2439024	-251	126	615	0.1775352	0.4357738	0.8781091	-0.08664205
5	100	1555432820	-377.956	-19.032	-845.155	-2.560976	1.707317	0.4878049	-249	128	614	0.1771196	0.4361705	0.877987	-0.0867336
5	100	1555432820	-383.995	-19.886	-838.445	-2.682927	1.829268	0	-249	128	613	0.1769129	0.4365062	0.8778649	-0.08670308
5	100	1555432820	-377.834	-18.788	-842.837	-2.682927	1.707317	0.2439024	-248	129	613	0.1770016	0.4364452	0.8778954	-0.08651997
5	100	1555432820	-382.897	-20.191	-843.752	-2.926829	1.219512	0.3658537	-249	128	615	0.176945	0.4368725	0.8777123	-0.08633687
5	100	1555432820	-386.496	-17.507	-850.096	-2.682927	1.585366	0.1219512	-248	129	611	0.1769732	0.4366588	0.8778039	-0.08642842
5	100	1555432820	-381.006	-19.52	-850.767	-2.317073	1.463415	0.1219512	-249	127	614	0.1772723	0.4363231	0.8778954	-0.08658101
5	100	1555432820	-388.753	-20.618	-842.227	-2.804878	1.707317	0.2439024	-248	128	613	0.1774158	0.4357738	0.8781091	-0.0868862
5	100	1555432820	-375.15	-18.056	-844.484	-2.804878	1.585366	0.4878049	-250	129	615	0.1774896	0.4356823	0.8781397	-0.0868862
5	100	1555432820	-380.213	-17.08	-850.706	-2.560976	1.463415	0.2439024	-248	128	610	0.17805	0.4351024	0.8783227	-0.08679464
5	100	1555432820	-387.716	-16.348	-839.36	-2.804878	1.707317	0.3658537	-250	129	614	0.1782409	0.4349192	0.8783836	-0.08670308
5	100	1555432820	-383.141	-19.886	-843.081	-2.804878	1.585366	0.6097561	-248	128	615	0.1781077	0.4350719	0.8783532	-0.08651997
5	100	1555432820	-392.901	-17.385	-851.316	-2.682927	1.707317	0.2439024	-250	129	615	0.1782422	0.4351329	0.8783227	-0.08624531
5	100	1555432820	-383.69	-13.969	-853.573	-2.804878	1.463415	0.4878049	-249	126	612	0.1785341	0.4347667	0.8784448	-0.08624531
5	100	1555432820	-377.773	-17.202	-854.366	-2.804878	1.585366	0.1219512	-250	128	614	0.1775819	0.4360179	0.8780175	-0.08624531
5	100	1555432820	-384.544	-10.98	-849.181	-2.804878	1.341463	0.4878049	-250	126	613	0.1778918	0.4357433	0.8781091	-0.0860622
5	100	1555432820	-382.104	-18.056	-846.924	-2.560976	1.829268	0.2439024	-250	130	613	0.1777144	0.4358348	0.8780786	-0.08627582
5	100	1555432820	-374.723	-21.838	-848.022	-2.439024	1.95122	0.3658537	-249	127	614	0.1771082	0.4364452	0.8778649	-0.08661153
5	100	1555432820	-387.167	-19.093	-845.704	-2.560976	2.073171	0.6097561	-248	128	612	0.1775539	0.4359264	0.8780175	-0.08676412
5	100	1555432820	-383.08	-24.766	-847.412	-2.804878	1.95122	0.4878049	-247	128	611	0.1773142	0.4359874	0.8780176	-0.08694724
5	100	1555432820	-381.799	-23.851	-851.682	-2.560976	1.829268	0.2439024	-249	127	613	0.177461	0.4356822	0.8781091	-0.08725242
5	100	1555432820	-380.274	-16.348	-850.706	-2.682927	1.585366	0.1219512	-247	128	612	0.1773903	0.4360179	0.877987	-0.08694723
5	100	1555432820	-379.359	-20.862	-852.109	-2.682927	1.707317	0.3658537	-250	128	613	0.1774341	0.4359569	0.8780175	-0.08685568
5	100	1555432820	-378.566	-12.322	-854.915	-2.682927	1.463415	0.3658537	-249	128	612	0.1772723	0.4363231	0.8778954	-0.08658101
5	100	1555432820	-373.747	-17.568	-852.536	-2.804878	1.585366	0.3658537	-250	128	613	0.1769912	0.436903	0.8776819	-0.08639791
5	100	1555432820	-380.152	-22.692	-852.292	-2.682927	1.585366	0.1219512	-250	126	612	0.1768716	0.4369945	0.8776513	-0.08648945
5	100	1555432820	-384.727	-18.422	-845.094	-2.804878	1.585366	0.2439024	-249	126	612	0.1774662	0.4362011	0.8779259	-0.08648945
5	100	1555432820	-381.799	-19.398	-847.046	-2.682927	1.463415	0.1219512	-250	129	615	0.1772436	0.4364757	0.8778344	-0.08648945
5	100	1555432820	-394.06	-19.459	-866.017	-2.682927	1.463415	0.3658537	-248	126	614	0.1775987	0.43614	0.8779565	-0.08621479
5	100	1555432820	-383.385	-15.494	-851.926	-2.682927	1.585366	0.7317073	-251	129	614	0.1778202	0.4358653	0.8780481	-0.08621479
5	100	1555432820	-380.457	-22.082	-879.254	-2.439024	1.585366	0.6097561	-249	130	614	0.177185	0.4366283	0.8777733	-0.08645894
5	100	1555432820	-387.716	-19.276	-858.27	-2.682927	1.463415	0.3658537	-250	127	614	0.1775102	0.4361095	0.8779565	-0.0865505
5	100	1555432820	-374.906	-15.311	-844.179	-2.682927	1.585366	0.2439024	-248	129	613	0.1774071	0.4362926	0.8778954	-0.08645894
5	100	1555432820	-372.466	-20.008	-867.298	-2.804878	1.585366	0.2439024	-248	129	614	0.1771403	0.4367199	0.8777428	-0.0863979
5	100	1555432820	-382.958	-18.422	-833.748	-2.682927	1.585366	0.2439024	-249	128	613	0.1776453	0.4362621	0.8778954	-0.08612324
5	100	1555432820	-384.178	-23.302	-850.523	-2.682927	1.585366	0.2439024	-249	129	614	0.1775406	0.4362926	0.8778954	-0.08618427
5	100	1555432820	-382.592	-24.522	-847.29	-2.926829	1.463415	0.1219512	-247	127	613	0.1777169	0.4358348	0.8780481	-0.08658101
5	100	1555432820	-387.594	-18.239	-847.534	-2.804878	1.585366	0	-249	127	615	0.1778356	0.4357128	0.8780786	-0.08664205
5	100	1555432820	-386.923	-15.372	-851.987	-2.560976	1.219512	0.2439024	-247	128	613	0.1782334	0.4353465	0.8782007	-0.08642842
5	100	1555432820	-370.026	-21.96	-869.799	-2.682927	1.341463	0.2439024	-250	127	614	0.1779871	0.4358043	0.8780175	-0.08648945
5	100	1555432820	-381.494	-17.324	-859.368	-2.682927	1.341463	0.4878049	-248	128	612	0.1780883	0.4355602	0.8781091	-0.08658101
5	100	1555432820	-371.856	-16.653	-834.968	-2.804878	1.707317	0.2439024	-250	128	615	0.1777054	0.4360179	0.8779565	-0.08661153
5	100	1555432820	-385.947	-14.274	-844.606	-2.804878	1.707317	0.3658537	-248	126	613	0.1781026	0.4354686	0.8781396	-0.08670308
5	100	1555432820	-385.52	-15.738	-835.456	-2.560976	1.341463	0.3658537	-250	128	614	0.178395	0.4351329	0.8782617	-0.0865505
5	100	1555432820	-381.128	-16.592	-846.314	-2.804878	1.585366	0.3658537	-249	128	613	0.1779001	0.4360485	0.8779259	-0.08636738
5	100	1555432820	-385.886	-19.52	-849.73	-2.926829	1.829268	0.2439024	-250	129	614	0.1780602	0.4358348	0.8780175	-0.08618427
5	100	1555432820	-391.803	-21.167	-839.726	-2.682927	1.341463	0.4878049	-249	127	614	0.1782069	0.4355602	0.8781091	-0.08633687
5	100	1555432820	-384.483	-18.666	-851.682	-2.682927	1.707317	0.4878049	-249	128	615	0.1784144	0.4354076	0.8781397	-0.08636739
5	100	1555432820	-379.847	-20.13	-855.708	-2.560976	1.585366	0.1219512	-247	127	612	0.1780316	0.4358043	0.8780175	-0.0863979
5	100	1555432820	-376.858	-20.679	-848.266	-2.560976	1.829268	0	-249	129	615	0.1780187	0.4359264	0.8779565	-0.08642842
5	100	1555432820	-374.479	-20.618	-844.484	-2.926829	1.829268	0.3658537	-248	128	615	0.1776195	0.4362926	0.8778344	-0.08664205
5	100	1555432820	-376.736	-16.653	-850.34	-2.682927	1.95122	0.1219512	-250	130	614	0.177456	0.4363842	0.8778039	-0.08682516
5	100	1555432820	-381.921	-20.313	-843.386	-2.682927	1.341463	0.7317073	-249	127	614	0.1776334	0.4361095	0.8778954	-0.08691671
5	100	1555432820	-380.396	-20.374	-849.669	-2.560976	1.829268	0.3658537	-249	129	612	0.1772794	0.4367809	0.8776513	-0.0867336
5	100	1555432820	-386.862	-19.581	-854.793	-2.682927	1.707317	0.3658537	-249	129	615	0.1767114	0.4373913	0.8774377	-0.08697775
5	100	1555432820	-390.583	-20.13	-855.342	-2.804878	1.463415	0.3658537	-250	128	614	0.176816	0.4373302	0.877468	-0.08676411
5	100	1555432820	-382.897	-17.202	-849.059	-2.926829	1.463415	0.3658537	-250	127	612	0.177293	0.4366588	0.8777122	-0.08670308
5	100	1555432820	-380.213	-23.424	-860.344	-2.682927	1.707317	0.1219512	-248	128	614	0.1772189	0.4367199	0.8776818	-0.08685568
5	100	1555432820	-378.383	-16.104	-854.732	-2.560976	1.707317	0.3658537	-250	126	613	0.1772779	0.4365368	0.8777428	-0.08703879
5	100	1555432820	-375.089	-15.86	-844.606	-2.804878	1.463415	0.2439024	-249	128	613	0.1770548	0.436903	0.8776208	-0.0868862
5	100	1555432820	-374.784	-15.738	-854.427	-2.926829	1.463415	0.3658537	-249	127	613	0.1771442	0.4370861	0.8775597	-0.0863979
5	100	1555432820	-383.08	-20.13	-848.144	-2.560976	1.463415	0.2439024	-250	127	613	0.1770999	0.4372387	0.8774987	-0.08633687
5	100	1555432820	-381.86	-23.18	-847.534	-2.926829	1.341463	0.6097561	-249	129	615	0.1771003	0.4372997	0.8774682	-0.08633687
5	100	1555432820	-384.727	-27.938	-852.048	-2.682927	1.341463	0.2439024	-250	129	613	0.1766966	0.4375439	0.8773766	-0.08685568
5	100	1555432820	-379.298	-21.106	-851.011	-2.682927	1.829268	0.2439024	-250	128	613	0.1765164	0.4376354	0.8773461	-0.08706931
5	100	1555432820	-387.655	-16.531	-850.523	-2.439024	1.463415	0.1219512	-250	128	614	0.1773105	0.4368114	0.8776208	-0.08682516
5	100	1555432820	-383.934	-18.544	-851.377	-2.560976	1.707317	0.2439024	-248	129	614	0.1776054	0.4363537	0.8778039	-0.08667257
5	100	1555432820	-382.836	-17.202	-858.148	-2.682927	1.341463	0.1219512	-251	129	615	0.1781238	0.4358653	0.8779565	-0.08651997
5	100	1555432820	-381.006	-18.239	-846.558	-2.804878	1.707317	0.4878049	-248	129	612	0.1779907	0.436079	0.8778954	-0.08633687
5	100	1555432820	-384.666	-27.267	-850.462	-2.560976	2.073171	0.2439024	-250	129	613	0.1776493	0.4361705	0.8778649	-0.0868862
5	100	1555432820	-382.226	-19.825	-842.654	-2.682927	1.707317	0.2439024	-249	127	611	0.1780929	0.4356517	0.8780175	-0.08703879
5	100	1555432820	-386.13	-23.546	-851.133	-2.926829	1.829268	0.1219512	-249	127	614	0.1778559	0.4358653	0.8779565	-0.08706931
5	100	1555432820	-383.812	-15.555	-845.338	-2.560976	1.585366	0.3658537	-249	127	613	0.1782529	0.4354686	0.8781091	-0.08670308
5	100	1555432820	-387.777	-16.775	-843.508	-2.560976	1.95122	0.3658537	-250	128	613	0.1786182	0.4350413	0.8782617	-0.0865505
5	100	1555432820	-383.263	-19.703	-854.732	-2.560976	1.585366	0.2439024	-248	128	613	0.1780331	0.4358348	0.877987	-0.0865505
5	100	1555432820	-383.69	-15.799	-842.227	-2.682927	1.707317	0.3658537	-250	126	612	0.1781814	0.4357128	0.8780175	-0.0865505
5	100	1555432820	-378.444	-20.496	-835.456	-2.682927	1.463415	0.1219512	-248	127	613	0.1779891	0.4358043	0.877987	-0.08679464
5	100	1555432820	-382.287	-21.838	-845.399	-2.682927	1.585366	0.3658537	-250	129	614	0.1775476	0.4364757	0.8777428	-0.08679464
5	100	1555432820	-376.797	-15.128	-827.77	-2.682927	1.585366	0.1219512	-249	128	612	0.1778122	0.4361095	0.8778954	-0.0865505
5	100	1555432820	-382.592	-17.568	-837.408	-2.804878	1.463415	0.2439024	-250	129	615	0.1779325	0.4362316	0.8778344	-0.08630635
5	100	1555432820	-387.411	-19.581	-854.976	-3.04878	1.707317	0	-247	127	614	0.1778412	0.4362316	0.877865	-0.08618428
5	100	1555432820	-390.034	-17.08	-833.504	-3.04878	1.585366	0.3658537	-250	127	612	0.177694	0.4364757	0.8777733	-0.08618427
5	100	1555432820	-386.74	-17.568	-861.991	-3.04878	1.707317	0.3658537	-248	127	615	0.1777837	0.4363537	0.8778039	-0.08630635
5	100	1555432820	-379.664	-20.13	-850.218	-2.804878	1.341463	0.3658537	-250	127	612	0.177592	0.4365978	0.8777123	-0.0863979
5	100	1555432820	-377.834	-12.566	-859.002	-2.682927	1.341463	0.2439024	-248	128	613	0.1774882	0.4369335	0.8775902	-0.08615375
5	100	1555432820	-375.882	-16.958	-846.375	-2.682927	1.463415	0.1219512	-249	129	613	0.1775774	0.4368419	0.8776208	-0.08612324
5	100	1555432820	-382.897	-25.62	-846.741	-2.560976	1.585366	0.3658537	-248	128	612	0.1771464	0.4373303	0.8774377	-0.08639791
5	100	1555432820	-384.117	-15.128	-845.521	-2.926829	1.707317	0.1219512	-250	128	613	0.1776809	0.4364147	0.8777733	-0.08651997
5	100	1555432821	-385.215	-27.45	-840.58	-2.682927	1.707317	0.4878049	-248	128	609	0.1776653	0.4362011	0.8778344	-0.08700827
5	100	1555432821	-393.023	-24.766	-862.418	-2.682927	1.463415	0.2439024	-250	127	615	0.1777845	0.4360789	0.8778648	-0.0870693
5	100	1555432821	-385.032	-15.25	-853.146	-2.804878	1.95122	0.3658537	-249	126	613	0.1780179	0.4357128	0.8780175	-0.0868862
5	100	1555432821	-382.226	-23.363	-870.958	-2.682927	1.585366	0.4878049	-249	127	613	0.1776809	0.4362926	0.8778039	-0.08682516
5	100	1555432821	-377.285	-19.642	-853.878	-2.804878	1.585366	0.3658537	-249	130	614	0.1776222	0.4363537	0.8777733	-0.08694723
5	100	1555432821	-377.712	-15.982	-841.922	-2.560976	1.829268	0.6097561	-250	129	613	0.1774147	0.4367199	0.8776513	-0.08676412
5	100	1555432821	-378.688	-19.703	-855.952	-2.682927	1.585366	0.2439024	-248	128	614	0.1777857	0.4362621	0.8778039	-0.08676412
5	100	1555432821	-387.472	-16.348	-835.761	-2.317073	1.219512	0.2439024	-250	128	615	0.1782701	0.4355907	0.8780481	-0.08667257
5	100	1555432821	-374.906	-18.91	-839.116	-2.560976	1.463415	0.2439024	-250	127	613	0.1781541	0.4359569	0.8779259	-0.08630635
5	100	1555432821	-381.799	-21.594	-847.839	-2.560976	1.585366	0.4878049	-249	129	614	0.1776076	0.4365673	0.8777123	-0.08651997
5	100	1555432821	-382.348	-18.056	-854	-2.682927	1.707317	0.3658537	-248	128	615	0.1771469	0.4373913	0.8774071	-0.0863979
5	100	1555432821	-376.492	-17.08	-842.776	-2.560976	1.829268	0.1219512	-250	128	612	0.1776245	0.4367504	0.8776208	-0.08648945
5	100	1555432821	-379.42	-16.714	-850.706	-3.04878	1.585366	0.3658537	-248	127	613	0.1774603	0.4368725	0.8775902	-0.08651997
5	100	1555432821	-377.529	-22.326	-851.438	-2.926829	1.585366	0.2439024	-250	129	614	0.1771462	0.4371777	0.8774987	-0.0865505
5	100	1555432821	-367.464	-19.337	-844.24	-2.560976	1.585366	0.4878049	-250	127	604	0.1771771	0.4372082	0.8774682	-0.08664205
5	100	1555432821	-381.616	-18.117	-851.377	-2.560976	1.829268	0.3658537	-250	128	614	0.1773117	0.4370251	0.8775292	-0.08667257
5	100	1555432821	-385.642	-18.3	-839.177	-2.682927	1.585366	0.4878049	-249	128	612	0.1775955	0.4367199	0.8776208	-0.08670308
5	100	1555432821	-376.126	-20.984	-840.275	-2.804878	1.463415	0.3658537	-250	128	614	0.1774614	0.436903	0.8775598	-0.08667257
5	100	1555432821	-381.25	-23.607	-844.789	-2.560976	1.585366	0.3658537	-249	128	614	0.1774294	0.4366283	0.8776818	-0.0868862
5	100	1555432821	-388.753	-23.668	-854.122	-2.804878	1.95122	0.3658537	-249	128	613	0.1773404	0.4366893	0.8776512	-0.0870693
5	100	1555432821	-382.409	-15.982	-847.656	-2.439024	1.707317	0.3658537	-248	126	611	0.1779341	0.4360179	0.8778649	-0.08706931
5	100	1555432821	-380.518	-15.494	-851.987	-2.560976	1.463415	0.3658537	-250	128	613	0.1779636	0.4360485	0.8778649	-0.08685568
