Log Mode	Log Freq	Timestamp	AccX	AccY	AccZ	GyroX	GyroY	GyroZ	MagnX	MagnY	MagnZ	qw	qi	qj	qk
5	200	1576222772	947.086	435.662	70.638	-6.824428	-14.24428	1.40458	-454	-490	-178	0.7926221	0.2549516	-0.5538499	-3.051851E-05
5	200	1576222772	969.168	387.777	88.877	6.183206	-12.29008	-7.969466	-454	-490	-177	0.7364606	0.2751243	-0.6179692	0.006805627
5	200	1576222772	989.603	380.335	78.751	11.70992	-4.961832	-7.450382	-454	-490	-177	0.7294651	0.2752464	-0.6261178	0.00982696
5	200	1576222772	954.894	418.033	88.328	17.87786	2.519084	-5.984733	-454	-492	-176	0.7234133	0.2771996	-0.6322215	0.0113834
5	200	1576222772	972.096	427.732	99.857	25.22137	5.40458	4.015267	-454	-492	-176	0.721948	0.2800073	-0.6326792	0.01019318
5	200	1576222772	947.391	418.277	55.083	32.07634	2.290076	9.328244	-454	-492	-173	0.7186599	0.2831202	-0.6350291	0.01043733
5	200	1576222772	932.934	424.621	47.397	33.75573	2.381679	13.29771	-454	-492	-173	0.716134	0.2855312	-0.6367992	0.01052889
5	200	1576222772	945.134	482.022	62.891	39.48092	8.412213	7.816794	-454	-492	-173	0.7134675	0.2896817	-0.6379285	0.009796442
5	200	1576222772	916.891	536.556	44.896	45.83206	1.435115	-2	-454	-492	-173	0.7115798	0.2949614	-0.6376537	0.007049776
5	200	1576222772	992.592	443.958	8.235	43.37405	-3.007634	-6.290076	-455	-493	-170	0.7074696	0.2993256	-0.6401868	0.007202368
5	200	1576222772	958.493	448.716	-15.616	41.22137	-4.152672	-4.961832	-455	-493	-170	0.7040412	0.3018891	-0.6427503	0.007812738
5	200	1576222772	958.554	457.683	-5.612	36.39695	-5.114504	-6.122138	-455	-494	-168	0.6997215	0.3055818	-0.6457106	0.008209479
5	200	1576222772	974.902	470.31	-38.613	34.44275	-5.465649	-6.931298	-455	-494	-168	0.6967621	0.3082675	-0.6476334	0.008056887
5	200	1576222772	981.246	470.371	-19.581	31.81679	-5.435114	-8.961832	-455	-496	-166	0.6930165	0.3117466	-0.6499832	0.007995849
5	200	1576222772	1004.426	460.916	-49.898	30.10687	-4.839694	-8.412213	-455	-496	-166	0.6908159	0.3133641	-0.6515397	0.008514664
5	200	1576222772	1010.648	432.673	-20.496	28.87023	-1.832061	-7.862596	-454	-498	-162	0.6875755	0.3147069	-0.6542863	0.01043733
5	200	1576222772	1030.717	427.854	-20.679	27.72519	0.5038168	-5.221374	-454	-498	-162	0.6862386	0.3148289	-0.6555986	0.01223792
5	200	1576222772	1047.492	415.41	-47.641	26	6.091603	-0.6870229	-455	-499	-161	0.6839597	0.3143407	-0.6581317	0.01586963
5	200	1576222772	1040.05	411.872	-28.792	24.87023	9.236641	3.40458	-455	-499	-161	0.6830707	0.3136387	-0.6593219	0.01843318
5	200	1576222772	1014.003	376.065	-17.629	22.58015	13.12977	7.419847	-455	-499	-161	0.6822456	0.3119297	-0.6608478	0.02282785
5	200	1576222772	1008.269	384.056	-3.416	21.08397	15.35878	9.679389	-455	-499	-161	0.6823322	0.310831	-0.6611836	0.02536088
5	200	1576222772	992.043	379.908	4.392	17.60305	17.55725	13.29771	-456	-499	-160	0.6830257	0.3092746	-0.6610614	0.0286874
5	200	1576222772	984.296	385.337	-2.806	15.74046	18.76336	15.09924	-456	-499	-160	0.6834855	0.3085421	-0.6608478	0.03048799
5	200	1576222772	930.311	412.177	30.5	13.46565	18.94657	18.38168	-455	-497	-160	0.6846137	0.3086947	-0.659566	0.03137303
5	200	1576222772	927.871	407.358	39.406	11.41985	18.29008	18.50382	-455	-497	-160	0.6858757	0.3087252	-0.6582232	0.03170873
5	200	1576222772	928.908	413.214	8.662	6.778626	16.39695	12.29008	-455	-497	-160	0.6867476	0.3094577	-0.6569719	0.03164769
5	200	1576222772	907.131	416.569	17.934	3.679389	15.43511	8.351145	-455	-497	-160	0.6876268	0.3103732	-0.6556596	0.03079317
5	200	1576222772	911.584	440.664	23.485	-0.2748092	12.90076	2.076336	-455	-496	-161	0.6891137	0.3120213	-0.6534013	0.02883999
5	200	1576222772	903.288	447.984	51.301	-0.7328244	12.21374	-0.351145	-455	-496	-161	0.6901925	0.3133641	-0.6516923	0.02710044
5	200	1576222772	908.534	444.324	17.202	-0.3664122	11.31298	-0.7633588	-456	-496	-160	0.6913251	0.3154393	-0.6495866	0.02459792
5	200	1576222772	918.66	438.224	35.624	0.4274809	11.22137	-1.801527	-456	-496	-160	0.6922031	0.3162938	-0.6482742	0.02352977
5	200	1576222772	927.871	424.377	45.75	0.7938932	11.37405	-2.274809	-456	-498	-162	0.694052	0.316538	-0.6461989	0.02285836
5	200	1576222772	938.058	415.715	30.561	1.083969	12.50382	-1.496183	-456	-498	-162	0.694527	0.316477	-0.6457107	0.023072
5	200	1576222772	928.908	393.694	62.098	1.40458	13.0687	-0.3053435	-455	-497	-161	0.6962488	0.3152867	-0.6443983	0.02414014
5	200	1576222772	940.193	389.546	58.011	2.519084	13.74046	1.343511	-455	-497	-161	0.6969175	0.3143407	-0.6440932	0.02529985
5	200	1576222772	938.363	370.941	77.958	4.580153	15.32824	3.541985	-454	-497	-162	0.6994541	0.3118686	-0.6424451	0.02768029
5	200	1576222772	952.332	362.462	61.183	6.259542	16.38168	4.259542	-454	-497	-162	0.7007067	0.3101291	-0.6418349	0.02963348
5	200	1576222772	928.054	390.156	99.918	8.641221	17.28244	5.587786	-454	-496	-162	0.7032781	0.3084811	-0.6397291	0.03140355
5	200	1576222772	922.686	384.3	92.659	9.389313	17.41985	6.70229	-454	-496	-162	0.7048143	0.3077181	-0.6383557	0.03238014
5	200	1576222772	897.676	402.234	91.439	8.580153	15.43511	8.351145	-454	-496	-163	0.7068293	0.3075351	-0.6361889	0.03283792
5	200	1576222772	887.489	414.312	88.633	7.603054	13.87786	8.977099	-454	-496	-163	0.7078601	0.308176	-0.6347545	0.03238014
5	200	1576222772	873.52	421.998	93.269	5.847328	11.14504	7.954198	-454	-495	-164	0.7095781	0.3091525	-0.6324046	0.03143407
5	200	1576222772	874.069	435.479	92.842	5.603054	9.114504	8	-454	-495	-164	0.7100565	0.3104038	-0.6313059	0.03036592
5	200	1576222772	894.931	415.532	102.663	9.709924	6.458015	13.40458	-454	-497	-164	0.7116771	0.3126622	-0.6284677	0.02804651
5	200	1576222772	864.065	388.814	75.884	8.045801	4.198473	8.259542	-454	-497	-164	0.7124005	0.3127842	-0.6275827	0.02813807
5	200	1576222772	864.187	396.134	97.295	2.534351	0.4122137	-2	-455	-496	-162	0.7132108	0.3126926	-0.6266976	0.0283517
5	200	1576222772	868.335	406.138	88.877	0.6412214	-2.259542	-7.114504	-455	-496	-162	0.7135419	0.3131504	-0.6261178	0.02777184
5	200	1576222772	879.071	433.527	83.997	0.6412214	-4.870229	-11.75572	-454	-496	-163	0.7137402	0.3146764	-0.6252022	0.02600177
5	200	1576222772	879.071	429.928	101.87	0.5801527	-5.709924	-12.61069	-455	-496	-162	0.7139657	0.3156529	-0.6245003	0.02481155
5	200	1576222772	892.308	447.862	42.883	1.022901	-7.267176	-14.1374	-455	-496	-162	0.7127769	0.3179418	-0.6247749	0.02276681
5	200	1576222772	912.499	434.93	63.013	2.458015	-8.229008	-16.44275	-455	-497	-160	0.7122348	0.3189795	-0.624897	0.02185125
5	200	1576222772	933.056	426.939	48.434	1.450382	-8.183207	-18.25954	-455	-497	-160	0.7106074	0.3196814	-0.6263925	0.0217597
5	200	1576222772	924.211	432.795	61.305	2.656489	-8.015267	-18.24427	-454	-499	-160	0.7094758	0.3202918	-0.627369	0.02157659
5	200	1576222772	954.04	404.491	57.401	4.977099	-6.48855	-18.0458	-454	-499	-160	0.7085224	0.3200782	-0.6285288	0.02230903
5	200	1576222772	963.922	391.315	34.587	6.824428	-4.458015	-17.40458	-454	-499	-159	0.7074259	0.3195288	-0.6299936	0.02362132
5	200	1576222772	964.288	417.789	85.827	11.38931	1.175573	-9.633588	-454	-499	-159	0.7069731	0.3185827	-0.6309092	0.02545244
5	200	1576222772	956.907	368.501	63.44	12.10687	4.152672	-8.305344	-454	-500	-159	0.7066197	0.3172399	-0.6318858	0.02771081
5	200	1576222772	976.366	371.063	58.56	11.1145	7.938931	-5.328244	-454	-500	-159	0.7058804	0.3149205	-0.6336863	0.03161718
5	200	1576222772	961.665	380.518	71.126	10.53435	10.32061	-4.10687	-453	-501	-156	0.7058865	0.3138523	-0.6341136	0.0334788
5	200	1576222772	953.186	407.114	33.367	9.435115	12.9313	-0.4122137	-453	-501	-156	0.7049484	0.3140355	-0.6349986	0.03473007
5	200	1576222772	940.62	425.902	59.414	9.450381	13.92366	0.2442748	-454	-502	-158	0.7051939	0.3147374	-0.6343883	0.03454696
5	200	1576222772	936.35	419.924	56.547	7.526718	13.41985	-1.969466	-454	-502	-158	0.7053747	0.3156224	-0.6337474	0.03454696
5	200	1576222772	913.658	425.658	65.453	5.832061	12.83969	-4.21374	-453	-501	-158	0.7055484	0.3165075	-0.633137	0.03408918
5	200	1576222772	880.718	439.993	69.601	3.969466	11.81679	-4.21374	-453	-501	-158	0.7064301	0.3183691	-0.6313059	0.03241066
5	200	1576222772	879.315	435.174	72.834	3.541985	10.51908	-3.358779	-453	-502	-157	0.7073017	0.3196509	-0.6297494	0.03103733
5	200	1576222772	833.687	441.213	102.846	2.961832	8.183207	-1.938931	-453	-502	-157	0.7090016	0.3218177	-0.6268502	0.02844325
5	200	1576222772	826.55	430.172	97.478	2.351145	6.305344	-1.541985	-452	-502	-159	0.7102976	0.3229469	-0.6248665	0.02691733
5	200	1576222772	802.699	437.065	110.898	1.633588	2	-2	-452	-502	-159	0.7118414	0.3248695	-0.6222114	0.02438429
5	200	1576222772	812.703	428.403	123.647	1.053435	-0.5496183	-2.641221	-452	-503	-157	0.7133757	0.3255714	-0.6201361	0.02301095
5	200	1576222772	831.125	412.97	73.505	1.282443	-3.816794	-4.396946	-452	-503	-157	0.7134929	0.326487	-0.6195562	0.02200384
5	200	1576222772	847.595	399.184	99.125	1.557252	-5.221374	-5.450382	-452	-503	-157	0.7143085	0.3259682	-0.6188848	0.02212592
5	200	1576222772	883.341	409.554	82.716	3.725191	-5.40458	-5.877862	-452	-503	-157	0.7145252	0.3250832	-0.619068	0.02301096
5	200	1576222772	879.193	414.556	84.973	6.015267	-4.900764	-4.290076	-453	-502	-156	0.7139977	0.3251137	-0.6196478	0.02334666
5	200	1576222772	890.234	407.846	73.871	8.687023	-4.458015	-3.969466	-453	-502	-156	0.7133758	0.3249611	-0.6204108	0.02420118
5	200	1576222772	919.453	414.678	77.226	11.43511	-3.923664	-5.694656	-452	-503	-156	0.7131265	0.3245644	-0.6208686	0.02511674
5	200	1576222772	917.806	401.99	88.084	17.60305	-3.343511	-0.3358779	-452	-503	-156	0.7127166	0.3248085	-0.6211737	0.02603229
5	200	1576222772	903.532	388.936	73.078	18.68702	-2.748092	-1.175573	-452	-503	-155	0.7123049	0.3240455	-0.6219672	0.02780236
5	200	1576222772	902.556	389.851	59.414	18.99237	-1.282443	-3.541985	-452	-503	-155	0.7112368	0.3236183	-0.6233101	0.02996918
5	200	1576222772	909.754	400.953	85.278	20.74809	-0.2748092	-4.152672	-452	-504	-154	0.7116676	0.3234047	-0.6228828	0.03091525
5	200	1576222772	863.638	434.93	72.224	28.38168	-2.137405	-8.59542	-454	-506	-153	0.7131019	0.3231605	-0.6212958	0.0323191
5	200	1576222772	923.54	431.392	49.471	29.81679	1.29771	-10.58015	-454	-506	-153	0.7130893	0.3244728	-0.6206245	0.03234962
5	200	1576222772	841.129	455.182	67.1	28.64122	-2	-9.511451	-452	-507	-151	0.7113172	0.3292642	-0.6202583	0.02987762
5	200	1576222772	899.689	472.567	50.996	27.86259	5.160306	-11.0687	-452	-507	-151	0.7108707	0.3316752	-0.6195257	0.0290231
5	200	1576222772	850.889	462.624	46.909	24.15267	-6.061069	-8.961832	-452	-508	-147	0.7087747	0.3364666	-0.6194647	0.02630696
5	200	1576222772	894.443	454.694	11.59	21.29771	-7.755725	-10.30534	-452	-508	-147	0.7069763	0.3384198	-0.6204719	0.02591022
5	200	1576222772	894.687	456.768	38.369	15.74046	-10.9771	-12.96183	-453	-508	-148	0.7046028	0.3406476	-0.6219673	0.02551348
5	200	1576222772	916.891	466.223	7.137	12.35114	-13.46565	-15.63359	-453	-508	-148	0.702522	0.3421125	-0.6235237	0.02529985
5	200	1576222772	919.514	465.064	15.067	9.068703	-15.32824	-19.05343	-452	-510	-145	0.6998484	0.3441877	-0.6254158	0.02453688
5	200	1576222772	923.052	462.868	2.013	8.549619	-16.61069	-20.16794	-452	-510	-145	0.6983384	0.3452254	-0.626545	0.02417066
5	200	1576222772	930.372	450.79	34.465	9.29771	-17.38931	-23.37405	-451	-511	-142	0.6969621	0.3460189	-0.6276436	0.02404859
5	200	1576222772	928.176	488.244	34.221	14.30534	-14.16794	-18.51908	-451	-511	-142	0.6964867	0.3469039	-0.6277047	0.02346873
5	200	1576222772	914.146	424.255	43.676	18.06107	-15.72519	-18.51908	-452	-513	-142	0.6960307	0.3466292	-0.6283151	0.02468948
5	200	1576222772	927.932	380.945	39.101	18.39695	-15.00763	-19.75573	-452	-513	-142	0.6957614	0.3454085	-0.6292001	0.02676473
5	200	1576222772	923.113	373.869	54.168	17.75573	-12.64122	-17.70992	-452	-515	-140	0.6959656	0.3427839	-0.6302378	0.03051851
5	200	1576222772	932.446	375.272	55.571	18.22901	-11.60305	-15.14504	-452	-515	-140	0.6957029	0.3411664	-0.6312753	0.03308206
5	200	1576222772	913.292	370.27	61.366	20.35114	-10.15267	-10.51908	-452	-515	-137	0.6965157	0.3387555	-0.631489	0.03650014
5	200	1576222772	925.614	363.438	43.005	21.89313	-8.870229	-8.793893	-452	-515	-137	0.6965603	0.3373821	-0.6320384	0.03878903
5	200	1576222772	912.499	393.145	69.601	23.43511	-8.839695	-8.274809	-452	-516	-137	0.6968127	0.3362224	-0.6322215	0.04126102
5	200	1576222772	917.257	400.465	53.375	25.92366	-9.770992	-9.832061	-452	-516	-137	0.6970346	0.3361003	-0.6319773	0.04223762
5	200	1576222772	905.728	433.466	45.262	30.91603	-11.87786	-15.70992	-452	-517	-135	0.6964867	0.3378094	-0.6316721	0.0422071
5	200	1576222772	911.462	465.247	30.988	34.68702	-11.80153	-15.19084	-452	-517	-135	0.6958514	0.3400983	-0.6312143	0.04113895
5	200	1576222772	862.235	433.588	18.544	36.80916	-17.93893	-18.77863	-452	-519	-132	0.6941128	0.343791	-0.6312143	0.03979614
5	200	1576222772	875.411	408.883	10.065	33.35878	-17.37405	-22.53435	-452	-519	-132	0.692902	0.3451338	-0.6317942	0.04007081
5	200	1576222772	881.633	421.754	8.967	28.18321	-18.99237	-23.9542	-452	-520	-128	0.6914101	0.3471175	-0.6323435	0.04004028
5	200	1576222772	868.884	429.44	14.945	26.03053	-20.70229	-23.37405	-452	-520	-128	0.6902319	0.3488571	-0.6327097	0.03946043
5	200	1576222772	879.01	452.742	0.549	25.00763	-21.84733	-24.64122	-451	-522	-125	0.6886035	0.351909	-0.6328929	0.03784296
5	200	1576222772	873.215	460.55	-0.976	24.74809	-23.72519	-25.57252	-451	-522	-125	0.6873924	0.3541979	-0.633015	0.03643911
5	200	1576222772	886.025	473.482	-0.366	24.87023	-27.43511	-29.38931	-451	-524	-123	0.6856358	0.3575243	-0.6331675	0.03433332
5	200	1576222772	881.694	477.752	-5.002	26.27481	-29.38931	-31.45038	-451	-524	-123	0.6844252	0.3598743	-0.6332285	0.03277688
5	200	1576222772	891.576	498.614	16.409	32.21374	-29.83206	-30.91603	-450	-527	-120	0.6832495	0.3640859	-0.632252	0.02948088
5	200	1576222772	879.559	451.4	11.041	35.63359	-29.64886	-35.20611	-450	-527	-120	0.6829337	0.3654591	-0.6318247	0.02896207
5	200	1576222772	867.786	423.279	18.971	35.35878	-30.9771	-37.86259	-450	-530	-116	0.6823417	0.3663442	-0.6319163	0.02972503
5	200	1576222772	869.738	415.654	17.69	34.10687	-32.19847	-37.03817	-450	-530	-116	0.6817978	0.3666494	-0.6322825	0.03064058
5	200	1576222772	875.289	418.216	2.745	34.68702	-35.20611	-32.58015	-450	-533	-112	0.6809606	0.366924	-0.6329539	0.03207495
5	200	1576222772	858.758	415.288	8.845	34.47328	-36.65649	-28.27481	-450	-533	-112	0.679949	0.3674733	-0.6336862	0.03277688
5	200	1576222772	840.214	424.56	-10.431	33.22137	-38.47328	-22.16794	-449	-534	-109	0.6789423	0.36845	-0.6341747	0.03323466
5	200	1576222772	857.477	441.03	-19.398	34.74809	-37.54198	-19.54198	-449	-534	-109	0.677685	0.3695486	-0.6348765	0.03329569
5	200	1576222772	834.907	469.578	6.527	40.61069	-38.06107	-20.25954	-449	-536	-104	0.6767057	0.3719596	-0.6345714	0.03216651
5	200	1576222772	834.419	487.512	-4.758	49.70992	-41.41985	-25.60305	-449	-536	-104	0.6756724	0.3745232	-0.6342357	0.03073214
5	200	1576222772	830.332	468.48	13.115	60.91603	-48.53435	-36.01527	-450	-538	-99	0.6744307	0.3780938	-0.6335032	0.02935881
5	200	1576222772	809.104	449.082	-8.052	65.35878	-53.08397	-39.28244	-450	-538	-99	0.6733671	0.3803827	-0.6332896	0.02880947
5	200	1576222772	784.643	443.714	-8.723001	72.25954	-63.28244	-44.25954	-449	-542	-92	0.6715108	0.384228	-0.6329844	0.02780236
5	200	1576222772	768.112	424.377	-17.446	73.23664	-67.08397	-47.49618	-449	-542	-92	0.6699551	0.3865474	-0.6332285	0.02761925
5	200	1576222772	786.534	403.149	5.002	73.74046	-67.14503	-51.86259	-449	-545	-84	0.668567	0.3888974	-0.6332285	0.02826014
5	200	1576222772	801.845	410.652	-15.86	72.87023	-67.22137	-50.96183	-449	-545	-84	0.6671229	0.3904233	-0.6337779	0.0290231
5	200	1576222772	763.537	405.894	22.265	72.65649	-71.40458	-46.27481	-447	-549	-77	0.6667899	0.3923459	-0.6329233	0.02938932
5	200	1576222772	790.865	391.254	5.795	74.32061	-78.09161	-41.35878	-447	-549	-77	0.6665938	0.3925596	-0.6329234	0.03094577
5	200	1576222772	757.742	374.235	22.875	71.37405	-72.09161	-30.53435	-446	-551	-70	0.6662418	0.3927732	-0.6330455	0.03323466
5	200	1576222772	761.89	376.858	-10.553	68.54962	-64.22901	-25.77099	-447	-556	-61	0.6650635	0.3931395	-0.633961	0.03500473
5	200	1576222772	744.932	381.738	28.487	67.89313	-60.90076	-20.15267	-447	-556	-61	0.6653683	0.3932005	-0.6334727	0.03729362
5	200	1576222772	728.218	382.409	14.579	68.50381	-56.64122	-15.17557	-447	-558	-55	0.6656753	0.3935057	-0.6328928	0.0384228
5	200	1576222772	680.455	408.456	1.403	69.14503	-55.52672	-5.206107	-447	-558	-55	0.6650046	0.3959166	-0.6320994	0.03833125
5	200	1576222772	649.833	418.765	-31.171	67.72519	-54.76336	4.351145	-446	-558	-47	0.6627771	0.3993347	-0.632374	0.03689688
5	200	1576222772	645.502	438.346	-77.165	62.21374	-57.19084	22.91603	-446	-558	-47	0.6575596	0.4056215	-0.6339916	0.03378399
5	200	1576222772	678.259	467.931	-86.437	60.64122	-59.96947	30.91603	-449	-559	-40	0.6537814	0.4095279	-0.635487	0.03183081
5	200	1576222772	739.869	466.04	-101.138	62.58015	-71.0687	32.33588	-449	-559	-40	0.6489387	0.4148076	-0.6371654	0.02887051
5	200	1576222772	761.585	472.933	-140.788	57.57252	-75.78626	23.41985	-451	-558	-33	0.6440595	0.4172796	-0.640492	0.02890103
5	200	1576222772	817.217	474.031	-180.56	46.0458	-81.86259	6.931298	-451	-558	-33	0.6364633	0.4203314	-0.6460463	0.02932829
5	200	1576222772	876.082	495.625	-225.151	39.87786	-86.71756	-2.458015	-452	-557	-23	0.6309009	0.4224067	-0.6501359	0.02932829
5	200	1576222772	913.78	530.822	-209.962	36.32061	-92.33588	-12.76336	-452	-557	-23	0.6238928	0.4252754	-0.6550493	0.02844325
5	200	1576222772	929.091	529.297	-247.05	34.91603	-93.41985	-14.9771	-454	-557	-16	0.6191486	0.4271066	-0.6583759	0.0278634
5	200	1576222772	943.914	540.46	-274.561	31.23664	-91.54198	-12.33588	-454	-557	-16	0.6113471	0.4298227	-0.6638997	0.02728355
5	200	1576222772	944.219	534.848	-266.631	28.58015	-88.9771	-8.488549	-452	-558	-10	0.6072	0.4310434	-0.666921	0.02694784
5	200	1576222772	973.072	530.09	-284.016	25.43511	-81.70992	-1.374046	-452	-558	-10	0.6014359	0.4319895	-0.6714988	0.02737511
5	200	1576222772	971.608	523.502	-272.914	23.86259	-76.51908	4.473282	-454	-558	-3	0.5987765	0.4319895	-0.6738487	0.02792444
5	200	1576222772	965.264	495.503	-271.816	22.35114	-68.33588	14.99237	-454	-558	-3	0.5948317	0.4314097	-0.677633	0.02957244
5	200	1576222772	969.778	471.713	-263.825	17.74046	-66.80916	22.61069	-454	-559	4	0.592611	0.4299753	-0.6803797	0.03189185
5	200	1576222772	1020.774	452.742	-240.096	15.19084	-57.19084	27.58779	-454	-559	4	0.5914735	0.4262215	-0.6834926	0.03650014
5	200	1576222772	998.997	425.109	-220.881	14.50382	-52.12214	32.47328	-455	-556	8	0.5915592	0.422956	-0.6852321	0.04028443
5	200	1576222772	971.73	402.661	-213.866	20.38168	-48.07634	34.42748	-455	-556	8	0.5915026	0.4182562	-0.6877957	0.04608295
5	200	1576222772	924.76	374.113	-202.215	21.20611	-47.60305	41.51145	-458	-554	12	0.5913772	0.4150212	-0.6895657	0.0502945
5	200	1576222772	938.241	391.193	-175.07	34.56488	-43.74046	38.65649	-458	-554	12	0.5924829	0.4109012	-0.690695	0.05536058
5	200	1576222772	899.262	371.49	-155.001	43.74046	-42.35115	35.03817	-459	-552	16	0.5943875	0.4084902	-0.6902371	0.05841243
5	200	1576222772	868.884	369.294	-163.114	56.21374	-45.69466	26.50382	-459	-552	16	0.595327	0.4062624	-0.6903592	0.06277658
5	200	1576222772	840.946	358.497	-142.435	58.15267	-45.19084	25.29771	-462	-550	23	0.5955667	0.4054689	-0.6903897	0.06524857
5	200	1576222772	828.929	437.065	-189.466	70.39695	-39.58779	35.29771	-462	-550	23	0.5954041	0.4068728	-0.6896573	0.06573687
5	200	1576222772	809.531	371.307	-147.742	73.49619	-45.57252	37.19084	-463	-549	28	0.5955158	0.4077883	-0.6889554	0.06640828
5	200	1576222772	743.224	372.71	-168.604	74.07634	-46.87023	36.29008	-463	-549	28	0.5932638	0.4099551	-0.6895352	0.06720176
5	200	1576222772	771.223	364.963	-199.409	70.48855	-50.51908	31.89313	-465	-545	35	0.5909191	0.4113284	-0.6906338	0.06817834
5	200	1576222772	715.774	398.269	-225.944	66.42748	-62.25954	23.9542	-465	-544	43	0.5864351	0.4156316	-0.6920682	0.06622516
5	200	1576222772	662.094	440.664	-281.637	64	-70.22901	19.17557	-465	-544	43	0.5815704	0.4210639	-0.6933195	0.06155583
5	200	1576222772	592.066	483.242	-319.701	61.41985	-83.20611	17.00763	-466	-544	50	0.571218	0.4322947	-0.6959136	0.05035555
5	200	1576222772	550.342	523.929	-334.341	66.44275	-92.56489	12.67176	-466	-544	50	0.5637941	0.4412366	-0.6970122	0.04025391
5	200	1576222772	534.787	490.806	-345.504	68.36641	-109.6336	5.29771	-467	-541	60	0.5505648	0.454329	-0.6998504	0.02594073
5	200	1576222772	550.281	499.102	-371.917	67.51145	-115.9237	8.045801	-467	-541	60	0.5417608	0.4614093	-0.7023225	0.01843318
5	200	1576222772	585.905	385.032	-372.588	58.67176	-134.2748	5.328244	-466	-540	71	0.5297506	0.4669332	-0.7079073	0.01431318
5	200	1576222772	602.192	344.223	-379.847	52.15267	-141.0229	-1.343511	-466	-540	71	0.521706	0.469039	-0.7124852	0.01379437
5	200	1576222772	663.192	340.746	-377.59	42.35115	-150.2595	-13.19084	-465	-540	84	0.5116364	0.4700766	-0.7190467	0.01510666
5	200	1576222772	714.31	334.89	-403.515	38.06107	-155.2977	-16	-465	-540	84	0.5056471	0.4697409	-0.7234412	0.01724296
5	200	1576222772	743.468	319.884	-401.502	35.0229	-157.7252	-13.54198	-463	-540	93	0.4979571	0.4683065	-0.7295755	0.02114933
5	200	1576222772	746.457	280.417	-435.235	32.29008	-158.6718	-7.725191	-463	-540	93	0.4922789	0.4667196	-0.7343059	0.02508621
5	200	1576222772	834.968	267.424	-420.961	32.56488	-155.8015	-3.053435	-461	-540	106	0.4855776	0.4631794	-0.7407148	0.03195288
5	200	1576222772	853.512	228.994	-423.828	36.10687	-151.5267	-0.3969466	-461	-540	106	0.4825886	0.4594561	-0.7446516	0.03875851
5	200	1576222772	882.975	212.097	-429.135	44.39695	-139.0687	6.732824	-458	-539	118	0.4783818	0.4537797	-0.7501755	0.04971465
5	200	1576222772	917.745	195.688	-432.673	51.08397	-130.3359	10.45802	-458	-539	118	0.4769223	0.4495987	-0.7530442	0.0577105
5	200	1576222772	928.603	206.79	-447.984	61.57252	-120.5344	13.8626	-456	-538	129	0.4738439	0.4443495	-0.7571337	0.06909391
5	200	1576222772	913.536	223.748	-454.816	65.25191	-114.229	15.26718	-456	-538	129	0.4716891	0.4418164	-0.7593616	0.0753502
5	200	1576222772	927.688	259.982	-538.447	67.80153	-107.4046	14.12214	-455	-534	139	0.4673484	0.4399548	-0.7624439	0.08188116
5	200	1576222772	901.885	303.658	-575.962	68.01527	-103.5725	12.48855	-455	-534	139	0.4635948	0.4404736	-0.764275	0.08334605
5	200	1576222772	864.065	329.522	-570.899	66.76336	-101.374	10.38168	-454	-534	148	0.4582823	0.4424573	-0.7663503	0.08316294
5	200	1576222772	824.964	338.733	-597.007	63.48092	-99.93893	11.9084	-454	-534	148	0.4537803	0.4444105	-0.7680288	0.0819422
5	200	1576222772	706.38	318.298	-611.281	55.45038	-95.16031	29.57252	-451	-531	158	0.4448219	0.4482864	-0.7714164	0.07803583
5	200	1576222772	584.38	331.474	-683.383	35.61832	-101.4504	56.0458	-451	-531	158	0.4342686	0.4518265	-0.7758415	0.07303079
5	200	1576222772	591.334	374.296	-641.415	12.9313	-102.5344	83.0687	-451	-528	166	0.4224376	0.4553667	-0.7811213	0.06353953
5	200	1576222772	535.824	429.623	-665.754	6.91603	-106.4427	89.87786	-451	-528	166	0.4142228	0.4582354	-0.7845393	0.05420087
5	200	1576222772	636.352	508.923	-631.472	12.18321	-116.7328	83.22137	-453	-521	173	0.4085519	0.4608295	-0.7868283	0.04028444
5	200	1576222772	514.901	500.139	-620.431	21.83206	-125.2366	70.29008	-453	-521	173	0.4041069	0.4637898	-0.7878963	0.02856532
5	200	1576222772	515.267	439.078	-593.591	32.83969	-134.916	24.71756	-452	-517	181	0.3957721	0.4683065	-0.7898495	0.01382488
5	200	1576222772	492.331	389.302	-579.134	35.23664	-144.1832	-1.435115	-452	-517	181	0.3898405	0.4709005	-0.7913448	0.007080293
5	200	1576222772	440.176	341.051	-625.799	37.0687	-158.3206	-17.28244	-449	-515	191	0.3767999	0.475631	-0.7948546	-0.001800592
5	200	1576222772	407.236	323.788	-622.261	36.19847	-164.5191	-19.57252	-449	-515	191	0.3663508	0.478927	-0.7977233	-0.007324442
5	200	1576222772	410.713	302.438	-632.265	34.50382	-168.8092	-18.87023	-445	-514	202	0.3515851	0.4827113	-0.8019959	-0.01342814
5	200	1576222772	426.756	316.956	-673.867	35.43512	-170.2137	-18.19847	-445	-514	202	0.3423629	0.484756	-0.8046815	-0.01693777
5	200	1576222772	408.822	316.956	-708.637	38.59542	-171.4351	-16.27481	-438	-515	215	0.328547	0.4876553	-0.8085574	-0.02200385
5	200	1576222772	419.009	331.901	-747.982	40.42748	-172.855	-14.03053	-438	-515	215	0.3192483	0.4894253	-0.8111209	-0.02502518
5	200	1576222772	400.16	357.582	-803.553	42.96183	-175.4504	-10.67176	-432	-515	225	0.3052595	0.4921415	-0.8146611	-0.0306711
5	200	1576222772	380.335	364.719	-855.342	43.00763	-177.4962	-7.450382	-432	-515	225	0.2952749	0.4940031	-0.8170415	-0.03488266
5	200	1576222772	375.272	398.086	-894.504	45.54198	-178.9771	-5.08397	-426	-514	238	0.281045	0.4964751	-0.820246	-0.04150517
5	200	1576222772	385.642	406.016	-919.27	47.22137	-177.7099	-10.47328	-426	-514	238	0.2722414	0.497879	-0.8221382	-0.04571673
5	200	1576222772	371.49	410.713	-983.076	48.62595	-181.2366	-20.0458	-419	-511	248	0.2587813	0.5001984	-0.8247322	-0.05148473
5	200	1576222772	383.812	409.31	-997.655	47.17557	-183.4962	-21.29771	-419	-511	248	0.2525727	0.5009002	-0.8261054	-0.0534379
5	200	1576222772	375.089	398.879	-1042.185	43.0687	-189.4657	-21.08397	-411	-511	261	0.2430605	0.5018769	-0.8281503	-0.05664235
5	200	1576222772	393.633	389.424	-1075.186	37.61832	-189.2061	-19.67939	-411	-511	261	0.2367121	0.5024262	-0.8294931	-0.05896176
5	200	1576222772	418.521	374.113	-1106.113	34.74809	-189.9847	-21.58779	-402	-509	273	0.2272469	0.5031282	-0.8314463	-0.06259346
5	200	1576222772	453.352	353.068	-1125.328	31.87786	-188.1679	-23.9084	-402	-509	273	0.2209041	0.5036165	-0.8326671	-0.06509599
5	200	1576222772	457.134	342.82	-1127.89	33.38931	-183.2366	-26.96183	-393	-510	285	0.2117699	0.50441	-0.834254	-0.06888028
5	200	1576222772	434.625	332.511	-1130.513	41.00763	-180.5038	-26.94657	-393	-510	285	0.2056087	0.5050203	-0.8352306	-0.07119969
5	200	1576222772	404.308	277.245	-1151.68	47.92366	-174.2901	-23.20611	-384	-509	296	0.196358	0.5059053	-0.8366649	-0.07412946
5	200	1576222772	389.424	245.708	-1133.563	48.65649	-170	-18.83969	-384	-507	307	0.190296	0.5063936	-0.837611	-0.07589953
5	200	1576222772	388.692	265.655	-1142.591	55.26718	-165.2519	-19.9084	-375	-507	307	0.1812507	0.5070345	-0.8390149	-0.07821894
5	200	1576222772	393.328	249.368	-1123.01	55.25191	-158.0458	-21.49618	-366	-506	310	0.1753749	0.5075228	-0.8398389	-0.07959227
5	200	1576222772	395.829	240.584	-1149.789	56	-149.5725	-23.93893	-366	-506	310	0.1668354	0.5083468	-0.840907	-0.08139286
5	200	1576222772	379.481	239.73	-1122.888	55.75573	-144.0611	-24.47328	-356	-504	325	0.1614237	0.5089572	-0.8414869	-0.08249153
5	200	1576222772	344.955	246.501	-1115.751	55.60305	-134.3512	-23.31298	-356	-504	325	0.1533944	0.5098422	-0.8423108	-0.0839259
5	200	1576222772	327.143	255.102	-1115.873	56.19847	-127.2366	-18.94657	-348	-502	335	0.1484716	0.510361	-0.8427992	-0.08471938
5	200	1576222772	277.672	228.384	-1101.233	58.47328	-117.4504	-11.29771	-348	-502	335	0.141365	0.5108799	-0.8436232	-0.08554338
5	200	1576222772	266.875	209.596	-1110.81	59.37405	-111.8626	-8.900764	-341	-499	341	0.1366673	0.5110935	-0.8442335	-0.08587909
5	200	1576222772	237.168	222.711	-1038.403	62.07634	-104.5802	-9.022901	-341	-499	341	0.1300202	0.5114598	-0.8450271	-0.0862148
5	200	1576222772	263.032	211.121	-1041.453	67.40458	-98.61069	-8.274809	-335	-497	349	0.1257784	0.5116733	-0.8455458	-0.08615375
5	200	1576222772	211.548	181.231	-1003.694	72.71756	-92.1832	-0.7480916	-335	-497	349	0.1193955	0.511887	-0.8464003	-0.0855739
5	200	1576222772	173.362	167.811	-992.836	72.29008	-87.40458	5.312977	-328	-491	355	0.1154617	0.5118259	-0.8470412	-0.08499405
5	200	1576222772	192.577	164.334	-1023.397	70.16794	-82.36641	9.343512	-328	-491	355	0.1095359	0.5115207	-0.8481094	-0.08401746
5	200	1576222772	173.85	163.907	-1021.994	69.19084	-79.45038	14.0916	-323	-487	362	0.1058811	0.5111851	-0.8488418	-0.08334605
5	200	1576222772	183.793	199.043	-968.558	63.43512	-74.1832	26.9313	-323	-487	362	0.1008534	0.5102389	-0.8501236	-0.08230842
5	200	1576222773	143.106	197.945	-956.053	64.70229	-75.1145	32.90076	-320	-481	368	0.09747573	0.5093235	-0.8511308	-0.08163702
5	200	1576222773	125.355	172.447	-993.385	66.45802	-70.01527	40.30534	-320	-481	368	0.09244616	0.5076449	-0.8528093	-0.08041627
5	200	1576222773	115.229	116.998	-938.424	61.20611	-71.84733	44.51908	-316	-477	373	0.0891431	0.5063631	-0.8539994	-0.07959227
5	200	1576222773	44.347	170.373	-944.341	50.99237	-67.60305	54.36641	-316	-477	373	0.08444302	0.5041353	-0.8558611	-0.07885983
5	200	1576222773	10.614	168.543	-911.462	54.41221	-68.77863	58.51908	-313	-473	377	0.08146655	0.5024262	-0.8572039	-0.0783105
5	200	1576222773	-37.454	122.061	-909.205	57.51145	-70.91603	65.38931	-313	-473	377	0.07729317	0.499527	-0.8593707	-0.0773339
5	200	1576222773	-86.254	108.641	-856.684	64.54962	-72.62595	66.35114	-310	-469	382	0.07363704	0.4975127	-0.8609272	-0.07657094
5	200	1576222773	-115.656	83.204	-853.512	73.37405	-78.74809	64.25954	-310	-469	382	0.06870943	0.4944609	-0.863216	-0.07513657
5	200	1576222773	-125.782	20.191	-828.319	76.54962	-83.8168	58.76336	-307	-462	387	0.06513295	0.4925382	-0.8646809	-0.07409894
5	200	1576222773	-86.681	-2.745	-853.817	73.61832	-88.87023	50.19847	-307	-462	387	0.05920448	0.4899442	-0.8666952	-0.07272562
5	200	1576222773	-59.048	12.444	-828.014	75.34351	-90.80916	44.91603	-304	-454	392	0.05548226	0.4883877	-0.8678854	-0.07193213
5	200	1576222773	-124.867	58.987	-928.359	80.39695	-93.69466	48.8855	-304	-454	392	0.04944074	0.4862819	-0.8695639	-0.07031465
5	200	1576222773	-191.296	102.297	-1027.24	77.03817	-94.8855	60.32061	-300	-448	398	0.04507817	0.4844813	-0.8708762	-0.06942961
5	200	1576222773	-150.426	133.407	-1074.454	59.37405	-92.48855	72.68702	-300	-448	398	0.03953269	0.4813379	-0.8729514	-0.06860561
5	200	1576222773	-70.638	162.626	-1054.507	55.14504	-98.03053	73.83206	-295	-441	405	0.03528402	0.478927	-0.8744774	-0.06836146
5	200	1576222773	-48.922	152.5	-1115.934	43.78626	-98.38168	75.40458	-295	-441	405	0.0294521	0.4751732	-0.8767357	-0.06839198
5	200	1576222773	-15.738	156.831	-1129.903	34.25954	-96.68703	76.90076	-291	-436	409	0.02616181	0.4726096	-0.8782007	-0.06869716
5	200	1576222773	11.59	170.983	-1135.21	22.91603	-96.83969	82.27481	-286	-431	413	0.02183114	0.4685812	-0.880398	-0.06967375
5	200	1576222773	21.533	141.947	-1166.93	16.47328	-95.22137	86.94656	-286	-431	413	0.01775357	0.465743	-0.8819239	-0.07055879
5	200	1576222773	58.255	89.548	-1153.815	6.045802	-92.56489	96.42748	-282	-427	416	0.01417068	0.4611347	-0.8842738	-0.0722068
5	200	1576222773	77.043	35.929	-1135.881	-0.5954198	-90.36641	104.1679	-282	-427	416	0.0108855	0.4577776	-0.8859524	-0.07354961
5	200	1576222773	244.854	7.137	-1118.557	13.96947	-51.40458	98.19847	-278	-423	419	0.0091902	0.4525284	-0.8885159	-0.07531969
5	200	1576222773	165.981	-6.71	-1074.576	3.984733	-75.93893	111.8473	-278	-423	419	0.007225903	0.4490799	-0.8902249	-0.07599109
5	200	1576222773	267.058	25.986	-1098.732	1.389313	-64.59542	109.7405	-276	-420	421	0.00562584	0.4434645	-0.8929106	-0.07757806
5	200	1576222773	340.136	42.273	-1110.078	10.54962	-59.98473	97.40458	-276	-420	421	0.008268405	-0.4400158	0.8945279	0.07834101
5	200	1576222773	288.652	86.742	-1064.816	31.03817	-56.62595	82.83969	-274	-417	422	0.008188725	-0.4355296	0.8966948	0.0786462
5	200	1576222773	256.078	81.618	-1067.561	45.64885	-49.69466	75.41985	-274	-417	422	0.008930342	-0.4328745	0.8980072	0.07824946
5	200	1576222773	183.366	33.55	-1026.447	56.64122	-46.9771	75.32825	-272	-412	425	0.01236711	-0.4290902	0.8998993	0.07687613
5	200	1576222773	193.858	14.213	-1028.277	59.28244	-42.90076	75.60305	-272	-412	425	0.01156516	-0.4265572	0.9012116	0.07571642
5	200	1576222773	198.25	15.921	-1012.356	61.40458	-37.41985	74.64122	-270	-406	427	0.01502606	-0.4227729	0.9031037	0.07376324
5	200	1576222773	198.921	37.149	-1036.329	61.25191	-33.38931	76.39695	-270	-406	427	0.01732711	-0.4202399	0.904355	0.07238991
5	200	1576222773	116.632	75.274	-1029.009	61.70992	-31.00763	85.38931	-270	-399	432	0.01977991	-0.4162114	0.9063387	0.07019258
5	200	1576222773	79.666	53.192	-1026.508	59.75573	-30.94657	92.61069	-270	-399	432	0.02175456	-0.4132206	0.9077731	0.06872769
5	200	1576222773	82.594	55.205	-1010.709	56.74809	-30.59542	92.71756	-269	-393	434	0.02383593	-0.4085818	0.9099704	0.06668294
5	200	1576222773	100.101	68.808	-1035.353	54.51908	-32.30534	86	-269	-393	434	0.02638187	-0.4055604	0.9113436	0.06540116
5	200	1576222773	115.9	58.133	-1068.964	45.19084	-32.83969	69.49619	-266	-387	435	0.02830979	-0.4016236	0.9131444	0.06375317
5	200	1576222773	120.963	68.381	-1100.867	35.60305	-31.80153	59.83206	-266	-387	435	0.02962564	-0.3994263	0.9141209	0.06295969
5	200	1576222773	136.457	104.92	-1023.702	30.71756	-30.65649	48.01527	-266	-382	438	0.03158297	-0.3966796	0.9153112	0.06207465
5	200	1576222773	140.3	115.046	-1060.851	29.03817	-28.53435	45.98473	-266	-382	438	0.03335805	-0.3950621	0.9159826	0.06155584
5	200	1576222773	158.478	108.092	-1053.226	28.54962	-24.03053	46.35115	-265	-378	439	0.0352003	-0.3926817	0.9169896	0.06076235
5	200	1576222773	166.896	116.754	-1030.595	29.45038	-19.00763	49.55725	-265	-378	439	0.03628508	-0.3910336	0.9176916	0.06015198
5	200	1576222773	168.055	97.905	-1019.981	33.32824	-15.0687	54.9771	-264	-375	439	0.03760954	-0.388348	0.9188513	0.0590228
5	200	1576222773	175.924	84.119	-1013.149	33.14504	-12.51908	51.45038	-264	-375	439	0.03835417	-0.3865169	0.9196448	0.0581988
5	200	1576222773	225.334	61.854	-1045.967	29.19084	-9.938931	33.55725	-263	-372	441	0.03989216	-0.3842891	0.9205909	0.05694754
5	200	1576222773	223.443	59.78	-1026.386	27.32825	-8.106871	20.19847	-263	-372	441	0.04021212	-0.383343	0.9210181	0.05618457
5	200	1576222773	221.979	35.319	-997.594	29.28244	-7.603054	0.9770992	-263	-368	441	0.04168589	-0.3827021	0.9212928	0.05496383
5	200	1576222773	183.61	39.467	-1016.565	36.61069	-8.717557	-10.24428	-263	-368	441	0.04239549	-0.3827631	0.9212928	0.05398724
5	200	1576222773	120.292	11.285	-927.688	46.56488	-1.832061	-13.23664	-262	-366	444	0.04372163	-0.3832514	0.9211402	0.05203406
5	200	1576222773	52.887	-4.636	-938.668	52.74809	-1.450382	-7.603054	-262	-366	444	0.04438058	-0.3834651	0.9211097	0.05041658
5	200	1576222773	104.005	-63.928	-907.436	65.74046	7.755725	-14.10687	-261	-363	444	0.04584711	-0.3837397	0.9210792	0.0474868
5	200	1576222773	121.756	-109.129	-954.101	65.8168	8.137404	-23.0687	-261	-363	444	0.04660784	-0.384228	0.9209571	0.04510636
5	200	1576222773	43.92	-164.395	-929.64	59.96947	8.076336	-30.19847	-260	-359	445	0.04807587	-0.3852962	0.9205908	0.04181036
5	200	1576222773	86.01	-158.417	-907.009	52.51908	10.47328	-33.93893	-260	-359	445	0.04864284	-0.3862423	0.9202551	0.03976562
5	200	1576222773	97.051	-99.796	-960.323	44.50382	11.63359	-28.9313	-260	-355	446	0.04940335	-0.3876461	0.9197363	0.03707999
5	200	1576222773	108.153	-64.05	-992.348	41.11451	14.67176	-23.51145	-260	-355	446	0.04914145	-0.3884091	0.9194922	0.03546251
5	200	1576222773	150.06	-41.846	-1007.415	39.32824	19.17557	-18.36641	-261	-352	446	0.04952626	-0.3892941	0.919187	0.03305155
5	200	1576222773	217.648	-32.635	-1046.394	37.34351	21.35878	-15.37405	-261	-352	446	0.04977177	-0.3897519	0.9190344	0.0314951
5	200	1576222773	282.674	-53.68	-1048.163	32.36641	26.77863	-9.007633	-261	-349	446	0.04933755	-0.3902707	0.9189123	0.02923673
5	200	1576222773	291.519	-54.229	-1059.387	29.52672	29.12977	-4.671756	-261	-349	446	0.0489403	-0.3904233	0.9189123	0.02783288
5	200	1576222773	334.463	-47.275	-1038.586	24.91603	34.96183	-1.358779	-262	-348	445	0.04807277	-0.3904538	0.9190039	0.02581866
5	200	1576222773	338.977	-42.7	-1063.657	22.54962	36.1832	0.2442748	-262	-348	445	0.04782477	-0.3904233	0.9190649	0.02453688
5	200	1576222773	371.673	-62.586	-1061.156	17.92366	40.70229	1.633588	-264	-345	445	0.04651119	-0.3903317	0.9192175	0.02273629
5	200	1576222773	364.353	-92.72	-1049.688	10.38168	45.0687	3.251908	-264	-345	445	0.04536288	-0.3902402	0.9193396	0.02166814
5	200	1576222773	364.17	-104.554	-1031.083	5.816794	47.17557	-1.603053	-266	-344	445	0.04340145	-0.3901792	0.9194922	0.02026429
5	200	1576222773	307.562	-116.327	-1003.511	4.412214	49.67939	-4.030534	-266	-344	445	0.04230895	-0.3902707	0.9195227	0.01940977
5	200	1576222773	310.673	-153.11	-996.679	2.503817	51.0229	-9.038168	-270	-344	445	0.03997052	-0.3905759	0.9195227	0.01818903
5	200	1576222773	288.042	-160.613	-955.199	2.931298	49.9084	-15.58779	-272	-343	442	0.03853866	-0.3909726	0.9194311	0.01736503
5	200	1576222773	261.263	-148.596	-979.05	10.59542	46.64122	-28.68702	-272	-343	442	0.03656164	-0.3920102	0.9190955	0.01596118
5	200	1576222773	242.109	-148.108	-982.771	11.83206	47.35878	-34.67176	-275	-345	440	0.03538692	-0.3930174	0.9187292	0.01489303
5	200	1576222773	242.231	-165.371	-937.326	17.60305	47.54198	-44.06107	-275	-345	440	0.03402676	-0.3949095	0.9179968	0.01306192
5	200	1576222773	225.761	-180.194	-959.591	19.49618	47.16031	-46.24427	-278	-343	432	0.03262545	-0.3963439	0.9174474	0.01171911
5	200	1576222773	177.754	-155.367	-951.356	19.83206	48.15267	-40.96183	-278	-343	432	0.03074428	-0.3984497	0.9166234	0.009704886
5	200	1576222773	133.59	-154.086	-944.585	20.0458	47.34351	-34.27481	-280	-343	440	0.02972205	-0.3996094	0.9161656	0.008331553
5	200	1576222773	95.709	-108.519	-938.851	24.54962	44.9771	-27.40458	-280	-343	440	0.02822016	-0.4010132	0.9156163	0.006225776
5	200	1576222773	83.265	-119.316	-929.274	28.15267	42.47328	-25.98473	-283	-343	438	0.02710181	-0.4018067	0.9153112	0.004730369
5	200	1576222773	89.609	-102.663	-928.359	33.0229	39.03817	-30.07634	-283	-343	438	0.02634005	-0.403058	0.9147923	0.002349925
5	200	1576222773	85.461	-84.302	-910.974	36.99237	38.50382	-35.23664	-286	-342	437	0.02583857	-0.4040651	0.9143651	0.0006103702
5	200	1576222773	48.983	-98.576	-951.234	36.71756	34.03053	-38.33588	-286	-342	437	0.02536714	-0.4057436	0.9136326	-0.002014222
5	200	1576222773	71.736	-79.544	-942.511	35.46565	30.21374	-41.41985	-287	-340	436	0.02427941	-0.4069643	0.9131138	-0.00369274
5	200	1576222773	47.824	-117.303	-927.078	29.52672	21.14504	-41.48092	-287	-340	436	0.02418102	-0.4088565	0.9122593	-0.005890072
5	200	1576222773	81.252	-110.471	-940.681	22.64122	20.13741	-38.29008	-287	-337	438	0.02390584	-0.4100772	0.91171	-0.007080294
5	200	1576222773	117.425	-88.328	-932.385	17.9542	17.67939	-31.66412	-287	-337	438	0.02356811	-0.4116947	0.9109775	-0.008484146
5	200	1576222773	155.611	-71.98	-939.156	16	14.85496	-30.9313	-289	-339	437	0.02320877	-0.4126408	0.9105502	-0.009338664
5	200	1576222773	161.162	-60.878	-983.076	15.12977	11.0229	-39.52672	-289	-339	437	0.0233547	-0.4142888	0.9097874	-0.01031526
5	200	1576222773	197.823	-61.976	-946.476	11.63359	22.44275	-32.79389	-288	-337	429	0.02318179	-0.4154179	0.9092685	-0.01101718
5	200	1576222773	196.847	-68.198	-963.434	10.07634	15.72519	-26.51908	-288	-337	429	0.02304512	-0.4167303	0.9086581	-0.01205481
5	200	1576222773	180.133	-49.227	-958.127	10.64122	18.18321	-29.0229	-290	-338	436	0.0222235	-0.4175543	0.9082919	-0.01266518
5	200	1576222773	149.45	1.464	-961.238	15.75572	18	-29.54198	-290	-338	436	0.02190609	-0.4189276	0.907651	-0.01376385
5	200	1576222773	74.847	14.762	-931.043	17.67939	15.23664	-25.83206	-290	-338	435	0.02144411	-0.4197821	0.9072543	-0.01458785
5	200	1576222773	-12.749	4.941	-919.148	20.82443	9.877863	-26.54962	-290	-338	435	0.02163505	-0.4209113	0.906705	-0.01586963
5	200	1576222773	-46.604	-8.54	-903.41	21.54198	4.274809	-30.85496	-290	-337	436	0.02226504	-0.4217658	0.9062777	-0.01669363
5	200	1576222773	-131.943	-4.453	-845.338	27.0687	-9.557252	-48.50382	-290	-337	436	0.02319593	-0.4235664	0.9053926	-0.01782281
5	200	1576222773	-175.619	-39.528	-852.17	30.39695	-19.96947	-60.32061	-290	-337	435	0.02399668	-0.4252449	0.9045686	-0.01861629
5	200	1576222773	-133.102	-96.624	-839.116	25.0687	-25.41985	-67.28244	-290	-337	435	0.02577043	-0.4282663	0.9030732	-0.01956237
5	200	1576222773	-146.522	-99.552	-816.607	24.06107	-31.74046	-62.1832	-287	-336	438	0.02663819	-0.430311	0.9020661	-0.01998962
5	200	1576222773	-121.024	-87.474	-829.539	25.37405	-30.9771	-48.38168	-287	-336	438	0.02899009	-0.4328745	0.9007538	-0.02053896
5	200	1576222773	-77.348	-93.635	-809.348	28.47328	-31.14504	-39.92366	-285	-336	438	0.03036878	-0.4342174	0.900052	-0.02096622
5	200	1576222773	-21.96	-128.039	-811.483	31.63359	-30.87023	-38.29008	-285	-336	438	0.03281581	-0.4359569	0.8991058	-0.0217597
5	200	1576222773	12.749	-133.407	-848.205	28.15267	-29.78626	-41.63359	-281	-335	440	0.03412034	-0.4372082	0.8984344	-0.02237007
5	200	1576222773	11.163	-116.937	-870.836	30.9313	-43.78626	-48.8855	-279	-335	442	0.03702415	-0.4392529	0.8973052	-0.02301096
5	200	1576222773	48.251	-117.791	-880.596	42.50382	-81.52672	-55.0687	-279	-335	442	0.0397072	-0.4408704	0.8963897	-0.02328562
5	200	1576222773	51.85	-117.486	-879.01	38.38168	-82.30534	-56.48855	-272	-334	444	0.04450129	-0.443495	0.8948637	-0.02346873
5	200	1576222773	87.413	-134.566	-927.505	33.0687	-85.87786	-56.62595	-272	-334	444	0.04788643	-0.4452345	0.8938261	-0.0234077
5	200	1576222773	108.824	-143.106	-955.077	23.74046	-90.06107	-67.75572	-266	-332	447	0.05221814	-0.4480117	0.8922086	-0.02285836
5	200	1576222773	157.136	-129.076	-1034.743	19.40458	-86.15267	-64.65649	-266	-332	447	0.05534136	-0.450148	0.8909574	-0.02233955
5	200	1576222773	263.215	-149.145	-1023.946	8.671756	-81.87786	-45.38931	-259	-333	451	0.06022064	-0.4527116	0.8893704	-0.02111881
5	200	1576222773	266.509	-148.047	-1031.144	8.519084	-67.96947	-30.56489	-259	-333	451	0.06231041	-0.4539018	0.888638	-0.02032533
5	200	1576222773	235.948	-144.875	-1037.976	4.320611	-45.41985	-6.48855	-253	-333	451	0.06543925	-0.4547563	0.8879971	-0.01937925
5	200	1576222773	277.184	-155.306	-1057.679	2	-29.75573	9.770992	-253	-333	451	0.06682856	-0.4546953	0.8879361	-0.01886044
5	200	1576222773	311.832	-195.81	-1050.237	-14.74809	-12.01527	31.77099	-250	-333	453	0.06782585	-0.4536882	0.8883938	-0.0179754
5	200	1576222773	323.544	-189.71	-1070.855	-24.25954	-1.832061	41.9084	-250	-333	453	0.06776695	-0.4525895	0.8889737	-0.01721244
5	200	1576222773	305.671	-180.682	-1076.284	-33.9084	7.465649	50.65649	-249	-333	453	0.06713779	-0.4504532	0.8901334	-0.01571703
5	200	1576222773	277.245	-139.934	-1080.859	-35.74046	9.816794	49.9084	-249	-333	453	0.06666201	-0.4489273	0.8909574	-0.0146794
5	200	1576222773	260.653	-151.768	-1035.475	-37.48092	11.78626	34.62595	-251	-335	453	0.06540646	-0.4469741	0.892056	-0.01312296
5	200	1576222773	231.434	-152.866	-1038.769	-40.94656	10.36641	27.35878	-251	-335	453	0.06457046	-0.4460891	0.8925748	-0.01205481
5	200	1576222773	139.934	-136.396	-1025.654	-38.06107	11.70992	18.73282	-252	-335	451	0.06336096	-0.4450819	0.8931852	-0.01037629
5	200	1576222773	88.999	-109.129	-1019.371	-25.41985	11.08397	5.053435	-252	-335	451	0.06262051	-0.4447156	0.8934292	-0.009521774
5	200	1576222773	-4.27	-37.881	-955.26	3.267176	-3.526718	-35.03817	-253	-337	452	0.06224149	-0.4453871	0.8931242	-0.009247108
5	200	1576222773	-25.315	-149.816	-893.406	8.778626	-7.419847	-57.66412	-253	-337	452	0.06308047	-0.446791	0.8923612	-0.009491256
5	200	1576222773	-124.379	-253.638	-888.526	6.21374	-13.98473	-66	-251	-338	452	0.06377447	-0.4497208	0.8908353	-0.00982696
5	200	1576222773	-177.754	-221.186	-837.957	9.007633	-19.60305	-68.15267	-251	-338	452	0.06442723	-0.451735	0.8897672	-0.009949034
5	200	1576222773	-120.17	-220.576	-802.394	15.48092	-31.93893	-81.46565	-251	-340	452	0.06598123	-0.4552141	0.887875	-0.0102237
5	200	1576222773	-131.638	-301.279	-825.147	14.1374	-38.45802	-79.28244	-251	-340	452	0.0675211	-0.4576556	0.8865017	-0.01034577
5	200	1576222773	-112.057	-251.869	-821.365	6.80916	-41.34351	-71.61832	-246	-340	453	0.06986988	-0.4610736	0.8845485	-0.01016266
5	200	1576222773	-31.903	-236.009	-863.821	3.282443	-38.24427	-74.74809	-246	-340	453	0.07137179	-0.4633015	0.8832667	-0.009887997
5	200	1576222773	-31.598	-227.652	-926.712	-13.37405	-37.54198	-77.57252	-243	-342	454	0.07293229	-0.4667806	0.8813135	-0.009125034
5	200	1576222773	-8.967	-142.252	-1000.034	-14.62595	-36.12214	-93.37405	-243	-342	454	0.07384558	-0.4694662	0.8798181	-0.008270516
5	200	1576222773	9.150001	-119.011	-981.551	-20.0458	-49.87786	-84.48855	-239	-343	454	0.07579495	-0.4736167	0.8774377	-0.006744591
5	200	1576222773	108.824	-75.152	-1015.894	-24.94657	-59.37405	-79.20611	-239	-343	454	0.07712758	-0.4761803	0.8759422	-0.005371258
5	200	1576222773	69.418	-70.028	-1092.937	-28.29008	-85.22137	-69.72519	-233	-347	456	0.07989556	-0.4796594	0.8738059	-0.002594073
5	200	1576222773	92.72	-35.929	-1076.467	-32.25954	-83.83206	-62.0458	-233	-347	456	0.08191527	-0.4817652	0.8724632	-0.0004882962
5	200	1576222773	119.56	-24.339	-1084.641	-33.64885	-83.45038	-55.32824	-226	-352	455	0.08526173	-0.4844814	0.8706321	0.002838222
5	200	1576222773	101.138	-67.832	-1103.49	-30.03053	-77.58778	-54.90076	-226	-352	455	0.08707679	-0.4862209	0.8694724	0.004974518
5	200	1576222773	59.414	-95.831	-1079.151	-23.20611	-64.25954	-59.49619	-218	-355	455	0.09008756	-0.4888455	0.8676717	0.007751701
5	200	1576222773	59.963	-134.505	-1061.095	-15.74046	-61.11451	-71.0687	-218	-355	455	0.09149119	-0.4908292	0.86639	0.009186071
5	200	1576222773	39.833	-208.132	-1002.779	-14.10687	-54.65649	-91.1145	-215	-357	457	0.09421583	-0.4944609	0.8640095	0.01092563
5	200	1576222773	27.023	-194.712	-981.429	-10.16794	-50.77863	-104.7176	-215	-357	457	0.09556694	-0.4974212	0.8621479	0.01184118
5	200	1576222773	43.615	-206.18	-949.099	-5.435114	-45.87786	-108.1374	-209	-360	457	0.09766845	-0.5022431	0.8590961	0.01290933
5	200	1576222773	64.721	-228.933	-967.948	-2.244275	-42.03053	-105.0076	-209	-360	457	0.09933373	-0.5053865	0.8570513	0.01342814
5	200	1576222773	42.639	-196.664	-966.911	5.282443	-36.58015	-92.22901	-204	-362	457	0.1014019	-0.5097507	0.8542131	0.0138554
5	200	1576222773	22.021	-159.759	-975.207	10.76336	-30.50382	-81.19084	-204	-362	457	0.1026439	-0.5122532	0.8525651	0.01391644
5	200	1576222773	-9.272	-157.99	-1004.426	18.74809	-18.44275	-67.23664	-199	-364	457	0.1043252	-0.5153661	0.8504899	0.01345866
5	200	1576222773	9.150001	-150.609	-996.984	19.54198	-12.82443	-63.38931	-199	-364	457	0.105273	-0.5171972	0.8492691	0.01290933
5	200	1576222773	-19.398	-136.884	-1000.888	11.03817	-1.908397	-53.66412	-195	-363	459	0.106414	-0.5197302	0.8475906	0.01211585
5	200	1576222773	1.037	-135.115	-998.692	8.030535	3.389313	-45.0229	-195	-363	459	0.1068003	-0.5211036	0.8467056	0.01159703
5	200	1576222773	-23.119	-109.434	-827.16	-1.29771	-5.877862	-40.91603	-195	-362	459	0.1068321	-0.5229347	0.8455763	0.01126133
5	200	1576222773	-44.896	-111.752	-841.983	6.351145	-29.03817	-32.44275	-195	-362	459	0.1074399	-0.5239418	0.8448744	0.01135289
5	200	1576222773	-89.304	-114.253	-969.351	34.19847	-42	-27.41985	-194	-363	459	0.109943	-0.5249489	0.8439283	0.01123081
5	200	1576222773	-63.928	-49.959	-1142.225	42.1832	-28.41221	-40.06107	-190	-360	460	0.1119624	-0.5257118	0.8431959	0.01058992
5	200	1576222773	-9.455	-65.27	-1117.764	17.29771	10	-76.12214	-190	-360	460	0.1132123	-0.5281533	0.8415174	0.009247108
5	200	1576222773	2.562	-118.096	-975.756	6.229008	22.82443	-87.67939	-187	-358	461	0.1133228	-0.5304728	0.8400525	0.008270516
5	200	1576222773	17.141	-147.498	-857.416	7.450382	12.12214	-92.62595	-187	-358	461	0.1126179	-0.5344402	0.8376415	0.006897183
5	200	1576222773	-2.501	-147.071	-799.527	7.267176	-3.038168	-83.34351	-187	-359	461	0.1128532	-0.5369732	0.8359935	0.006225776
5	200	1576222773	-18.666	-183.366	-853.817	9.343512	-19.81679	-64.15267	-187	-359	461	0.1138271	-0.5400861	0.8338572	0.005706961
5	200	1576222773	20.923	-157.929	-764.208	3.740458	-27.89313	-55.34351	-186	-358	458	0.114783	-0.5417646	0.8326365	0.005706961
5	200	1576222773	100.833	-143.96	-787.693	-25.80153	-51.60305	-48.70229	-186	-358	458	0.1164105	-0.544023	0.8309275	0.006866665
5	200	1576222773	66.551	-171.654	-707.173	-40.79389	-75.05344	-43.64885	-182	-359	461	0.1179669	-0.5454268	0.8297678	0.008880887
5	200	1576222773	-37.881	-171.349	-515.328	-25.54198	-124.5038	-32.16794	-182	-359	461	0.1212772	-0.5471663	0.8280892	0.01300089
5	200	1576222773	-246.135	-19.337	-298.473	38.48855	-148.0611	-6.305344	-175	-359	462	0.1254427	-0.5476851	0.8270821	0.0155034
5	200	1576222773	-286.334	-115.046	-197.091	202.3512	-144.8244	37.80153	-175	-359	462	0.1355946	-0.5459762	0.8266243	0.01470992
5	200	1576222773	-235.094	-145.241	-285.785	310	-117.2824	61.98473	-164	-346	468	0.1442883	-0.5431989	0.8270516	0.01007111
5	200	1576222773	-183.915	-276.879	-831.125	381.1603	-57.48092	91.72519	-164	-346	468	0.1583058	-0.5368817	0.8286691	-0.002227851
5	200	1576222773	-159.698	-387.838	-1125.511	360.3206	-24.16794	90.51908	-156	-316	476	0.1664916	-0.5320902	0.8300729	-0.01181066
5	200	1576222773	-45.201	-257.908	2842	95.23664	-28.16794	56.76336	-156	-316	476	0.1751666	-0.5262612	0.831782	-0.02246162
5	200	1576222773	97.417	-232.288	3087	-271.6336	-69.57252	2.763359	-154	-289	481	0.1749623	-0.525956	0.8321177	-0.01840266
5	200	1576222773	-35.685	176.046	-651.663	-177.4809	-160.458	-18.12214	-154	-289	481	0.1725706	-0.529313	0.8306833	-0.003509629
5	200	1576222773	-141.703	22.204	-660.447	1.832061	-166.3664	6.473282	-148	-306	477	0.176065	-0.5298929	0.8295847	0.001983703
5	200	1576222773	-209.352	-57.706	-1300.581	54.54962	-0.4732825	40.50382	-148	-306	477	0.1816272	-0.5284891	0.8292795	0.002533036
5	200	1576222773	-235.887	-101.321	-1339.194	-18.94657	130.4427	68.1832	-138	-306	472	0.1802234	-0.526719	0.8307138	0.001098666
5	200	1576222773	-217.526	-195.932	-872.605	-92.50381	242.2137	69.51145	-138	-306	472	0.1699215	-0.5241554	0.8344981	-0.0008545183
5	200	1576222773	-189.527	-230.397	-391.315	-62.29008	220.916	46.77863	-149	-309	477	0.1617442	-0.5228431	0.8369396	-0.002441481
5	200	1576222773	-205.326	-252.113	-364.475	25.70992	81.8168	-2.290076	-149	-309	477	0.154653	-0.5219275	0.8388317	-0.005951109
5	200	1576222773	-238.022	-320.433	-805.627	23.77099	-31.84733	-31.28244	-164	-314	477	0.1545568	-0.5222327	0.8386486	-0.007324442
5	200	1576222773	-181.963	-356.972	-1088.118	-42.07634	-133.0992	-97.17558	-164	-314	477	0.1583205	-0.5250405	0.8362072	-0.004974518
5	200	1576222773	-182.024	-228.872	-994.361	-68.10687	-155.4504	-126.3511	-160	-313	475	0.1616609	-0.5286416	0.8333079	-0.001281777
5	200	1576222773	-226.737	-93.208	-852.902	-53.67939	-155.542	-115.145	-160	-313	475	0.1670209	-0.5345011	0.8284858	0.004852443
5	200	1576222773	-221.613	-88.023	-941.779	-29.25191	-124	-101.771	-149	-317	475	0.1705374	-0.5378277	0.8255867	0.008056886
5	200	1576222773	-201.605	-110.898	-1291.736	-34.10687	-10.82443	-66.74809	-149	-317	475	0.1729198	-0.541734	0.8225043	0.01046785
5	200	1576222773	-149.755	-163.358	-1132.099	-35.61832	29.16031	-35.35878	-140	-321	474	0.1719232	-0.543382	0.8216193	0.01095614
5	200	1576222773	-95.16	-266.326	-802.516	-11.60305	14	-19.87786	-139	-323	473	0.1703313	-0.5445723	0.8211615	0.0110477
5	200	1576222773	-57.462	-317.2	-810.995	-4.70229	-22.71756	-25.43511	-139	-323	473	0.1705287	-0.5452437	0.8206732	0.01116977
5	200	1576222773	-62.22	-285.541	-879.742	-22.74809	-73.78626	-20.59542	-137	-325	474	0.1725934	-0.5462508	0.8195441	0.01300089
5	200	1576222773	-72.102	-259.006	-974.719	-32.32061	-73.00764	-20.07634	-137	-325	474	0.1743426	-0.5469222	0.8186895	0.01510666
5	200	1576222773	-30.683	-192.821	-1052.494	-37.26718	-20.65649	-9.740458	-132	-328	473	0.1756311	-0.5478377	0.8177435	0.0179754
5	200	1576222773	-15.189	-163.175	-917.928	-24.8855	13.96947	-0.8091603	-132	-328	473	0.1751503	-0.548143	0.8176215	0.01889096
5	200	1576222773	15.372	-140.178	-887.184	-14.33588	10.25954	33.16031	-130	-332	473	0.1741531	-0.5475326	0.8182318	0.01937926
5	200	1576222773	12.078	-120.658	-1073.539	-41.31298	14.94656	38.01527	-130	-332	473	0.1734131	-0.5466475	0.8189642	0.02005066
5	200	1576222773	-148.718	-82.472	-1095.682	-138.0611	49.23664	54.10687	-132	-336	473	0.1699077	-0.5453658	0.8204596	0.02352977
5	200	1576222773	-142.74	-42.7	-1055.727	-186.5649	84.70229	52.22901	-132	-336	473	0.1648434	-0.5448165	0.8217415	0.02725303
5	200	1576222773	-140.666	-47.702	-902.007	-197.6336	122.3359	41.32824	-138	-350	468	0.1548302	-0.5445723	0.8236336	0.03311258
5	200	1576222773	-132.736	-27.45	-1057.801	-192.7481	132.626	49.12977	-138	-350	468	0.1475664	-0.5444807	0.8248848	0.03646962
5	200	1576222773	-206.79	-200.812	-1329.373	-235.2824	215.6794	93.61832	-148	-365	463	0.1344131	-0.5431684	0.8277535	0.04153569
5	200	1576222773	-304.085	-180.499	-1171.444	-256.0305	301.1298	109.2977	-148	-365	463	0.1223125	-0.541673	0.8304697	0.04416028
5	200	1576222773	-240.889	-43.615	-1175.714	-318.6718	349.8168	141.8168	-172	-386	456	0.09970865	-0.5384076	0.8353832	0.04806665
5	200	1576222773	-110.593	-34.77	-1178.154	-359.4962	322.9466	131.6947	-172	-386	456	0.08330599	-0.5360271	0.8384655	0.05206458
5	200	1576222773	366.488	-300.181	-596.824	-116.4275	60.70229	19.9084	-193	-401	448	0.07877462	-0.5331584	0.8406934	0.05264443
5	200	1576222773	190.259	-55.754	2793	-193.0382	76.85497	-25.12977	-193	-401	448	0.07412915	-0.5339213	0.8404187	0.05594043
5	200	1576222773	-103.639	-230.336	352.153	-141.9847	-45.84733	-23.23664	-199	-413	444	0.06621479	-0.5358745	0.8393506	0.06280709
5	200	1576222773	272.426	-151.28	-302.56	-158.7786	-44.80916	-5.877862	-199	-413	444	0.06479668	-0.5365154	0.8385875	0.06872768
5	200	1576222773	124.501	44.469	-618.418	-28.18321	1.755725	4.152672	-197	-426	442	0.0634108	-0.5365459	0.8383129	0.07300027
5	200	1576222773	-5.551	94.306	-547.17	21.92366	5.450382	-2.748092	-197	-426	442	0.05701298	-0.5363323	0.8389539	0.07248146
5	200	1576222773	-82.777	35.929	-671.366	51.92366	-11.08397	-13.38931	-197	-427	441	0.05811368	-0.5365459	0.8388928	0.07071139
5	200	1576222773	-86.254	-16.287	-895.724	61.87786	-31.37405	-8.885496	-197	-427	441	0.06029087	-0.536668	0.8387707	0.06939909
5	200	1576222773	-32.696	-25.864	311.405	90.36641	-52.65649	-8.885496	-195	-422	442	0.06381324	-0.5366375	0.8386791	0.06756798
5	200	1576222773	-222.833	46.726	-1652.002	110.5191	29.22137	11.63359	-195	-422	442	0.06662087	-0.5361797	0.8390149	0.06424146
5	200	1576222773	-138.226	-124.196	-1256.539	-21.12977	-15.32824	20.22901	-193	-414	446	0.06823196	-0.5356609	0.8392285	0.06408887
5	200	1576222773	-20.801	-70.699	-923.113	-5.51145	1.282443	15.64886	-193	-414	446	0.06823938	-0.5351116	0.8395643	0.06427199
5	200	1576222773	-34.587	-3.599	-1026.508	-45.17557	40.35115	2.274809	-191	-415	445	0.06681296	-0.5347759	0.8398694	0.06457718
5	200	1576222773	-10.919	12.871	-975.451	-51.11451	44.68702	-5.450382	-191	-415	445	0.06483485	-0.5349895	0.8398389	0.06521805
5	200	1576222773	-1.22	51.85	-983.93	-61.05344	43.84733	-9.251908	-195	-418	443	0.06149098	-0.5356609	0.8395643	0.06646932
5	200	1576222774	3.294	78.812	-962.397	-53.0687	40.51908	-4.061069	-195	-418	443	0.05910825	-0.5360576	0.8394116	0.06735435
5	200	1576222774	7.381	133.468	-887.794	-32.29008	28.35114	6.793893	-196	-422	442	0.05707149	-0.5362102	0.8393811	0.06826991
5	200	1576222774	-2.745	113.338	-802.089	-8.183207	7.557252	19.49618	-196	-422	442	0.0558426	-0.5358745	0.8396558	0.06854457
5	200	1576222774	87.23	6.222	-828.685	23.22137	-23.89313	9.755725	-199	-424	442	0.05688686	-0.5350505	0.8401134	0.06851405
5	200	1576222774	91.805	20.435	-890.905	34.90076	-31.93893	2.335878	-199	-424	442	0.05817775	-0.5347149	0.8402662	0.06817836
5	200	1576222774	-11.041	17.141	-1000.583	33.51145	-33.98473	5.206107	-197	-422	443	0.06098435	-0.5342876	0.8403882	0.06756798
5	200	1576222774	-45.384	-25.681	-1034.682	24.47328	-26.10687	5.969466	-197	-422	443	0.0625267	-0.5339518	0.8405102	0.06729332
5	200	1576222774	-18.727	-39.223	-1076.528	11.67939	-8.732824	-1.099237	-195	-420	444	0.06395226	-0.5336772	0.8406018	0.06698813
5	200	1576222774	-75.274	-9.821	-1032.73	4.564886	-1.328244	-0.8854962	-195	-420	444	0.06436521	-0.5336466	0.8406018	0.06683554
5	200	1576222774	-58.621	-38.491	-966.789	-7.480916	5.755725	-4.580153	-193	-418	445	0.06089829	-0.5340739	0.8409986	0.06146428
5	200	1576222774	-32.208	-31.537	-944.463	-1.51145	12.65649	-12.36641	-193	-418	445	0.06083218	-0.5343181	0.840846	0.0614948
5	200	1576222774	-60.085	-72.651	-932.324	0.9160305	15.00763	-17.57252	-193	-419	444	0.06039163	-0.5349895	0.8404797	0.06109806
5	200	1576222774	-64.111	-53.436	-984.54	2.045802	16.47328	-16.39695	-193	-419	444	0.05958532	-0.5355083	0.8402356	0.06070131
5	200	1576222774	-52.704	7.686	-1011.929	-3.099237	13.05344	-14.35114	-194	-419	445	0.05966629	-0.5361797	0.8398389	0.0601825
5	200	1576222774	-63.196	55.693	-988.749	-11.0687	11.96947	-7.648855	-194	-419	445	0.0592553	-0.5365154	0.8396558	0.06015198
5	200	1576222774	-73.444	97.6	-966.057	-12.91603	16.48855	1.328244	-194	-418	443	0.0581716	-0.5366681	0.8396253	0.06027406
5	200	1576222774	-64.538	100.833	-935.374	-10.73282	17.38931	1.206107	-194	-418	443	0.0579807	-0.5366375	0.8396558	0.06030457
5	200	1576222774	-40.26	81.618	-979.294	-12.67176	8.610687	4.534351	-196	-420	444	0.05734031	-0.5365459	0.8397473	0.06045717
5	200	1576222774	-30.927	52.155	-962.519	-10	5.29771	5.007634	-196	-421	444	0.05691357	-0.5364239	0.8398389	0.0606708
5	200	1576222774	-7.076	1.403	-980.27	-5.312977	5.053435	-0.351145	-196	-421	444	0.05077362	-0.5365155	0.8405103	0.05581836
5	200	1576222774	-26.596	20.984	-1001.986	-9.572519	5.908397	-0.4274809	-198	-420	443	0.04717603	-0.5366681	0.840785	0.05331584
5	200	1576222774	-23.18	17.141	-999.668	-12.33588	10.38168	0.8396947	-198	-420	443	0.046666	-0.5366375	0.8408154	0.0535905
5	200	1576222774	-15.738	12.139	-986.919	-13.05344	11.25191	2.198473	-196	-422	443	0.04625353	-0.5366069	0.8408459	0.05377361
5	200	1576222774	-20.862	14.823	-970.205	-13.89313	9.557252	5.145038	-196	-422	443	0.04547705	-0.5364544	0.8409681	0.05404828
5	200	1576222774	-21.228	32.33	-977.281	-17.35878	10.27481	5.938931	-197	-422	441	0.04529187	-0.5363018	0.8410596	0.05429243
5	200	1576222774	22.326	41.419	-957.09	-16.8855	15.19084	3.755725	-197	-422	441	0.04471307	-0.5361186	0.8411817	0.05468917
5	200	1576222774	-6.71	47.824	-953.979	-15.98473	13.63359	5.328244	-198	-424	441	0.04381763	-0.5360271	0.8412732	0.0549028
5	200	1576222774	-2.745	56.181	-961.482	-14.18321	9.435115	10.01527	-198	-424	441	0.04335817	-0.5356914	0.8414869	0.05526902
5	200	1576222774	4.27	34.587	-935.069	-12.03053	6.778626	11.92366	-199	-426	439	0.04266318	-0.5353862	0.8417005	0.05551317
5	200	1576222774	-7.076	52.033	-913.292	-4.183206	4.91603	14.65649	-199	-426	439	0.04235048	-0.5348063	0.8420666	0.05578783
5	200	1576222774	23.546	65.697	-960.506	-5.206107	-0.07633588	14.51908	-200	-426	439	0.04220033	-0.5343791	0.8423414	0.05584887
5	200	1576222774	20.984	8.418	-939.034	-1.465649	-5.908397	13.08397	-200	-426	439	0.04237159	-0.5337077	0.8427382	0.05615406
5	200	1576222774	30.134	19.398	-960.323	-0.9923664	-8.274809	12.36641	-200	-426	439	0.04286946	-0.533311	0.8429518	0.05633717
5	200	1576222774	-7.93	29.951	-969.351	-0.519084	-6.656488	14.45802	-200	-426	439	0.04305259	-0.5326395	0.8433484	0.05661183
5	200	1576222774	-16.836	21.472	-965.508	-0.5648855	-3.435115	12.54962	-198	-425	441	0.04376522	-0.5321817	0.8435925	0.0567339
5	200	1576222774	-11.468	4.453	-985.211	-1.709924	0.7328244	1.267176	-198	-425	441	0.04118385	-0.5319071	0.8440504	0.05438399
5	200	1576222774	-25.193	5.978	-978.379	-1.89313	0.2748092	-7.206107	-199	-425	439	0.03931877	-0.5320597	0.8441725	0.05233924
5	200	1576222774	-57.828	59.536	-1009.489	-2.122137	6.763359	-18.36641	-199	-425	439	0.03946026	-0.532548	0.8438673	0.05218665
5	200	1576222774	-75.884	68.808	-919.575	1.496183	8.488549	-19.00763	-199	-424	439	0.03942172	-0.5330974	0.8435317	0.05203406
5	200	1576222774	-73.444	21.777	-952.027	3.068702	2.396947	-16.27481	-199	-424	439	0.0397042	-0.5338297	0.8430738	0.05172887
5	200	1576222774	-54.717	21.289	-945.439	4.870229	2.671756	-13.45038	-198	-426	440	0.03937709	-0.5342571	0.8428297	0.05154576
5	200	1576222774	-14.579	-13.908	-939.766	9.206107	7.114504	-7.022901	-198	-426	440	0.03981214	-0.5346538	0.8425855	0.05108799
5	200	1576222774	-10.614	-13.542	-963.251	9.343512	6.580153	-2.198473	-198	-425	437	0.04041541	-0.5347453	0.8425245	0.05066073
5	200	1576222774	-5.246	9.821	-990.579	9.877863	5.29771	2.519084	-198	-425	437	0.04047878	-0.5346538	0.842616	0.05005036
5	200	1576222774	-3.538	69.845	-998.997	9.862596	5.099236	6.793893	-199	-424	440	0.04044195	-0.5345012	0.8427381	0.04965362
5	200	1576222774	1.037	69.784	-969.595	10.15267	5.603054	13.32824	-199	-424	440	0.04080801	-0.5339518	0.8431042	0.04904324
5	200	1576222774	4.27	70.333	-988.383	3.664122	9.450381	10.65649	-199	-423	440	0.04032166	-0.5335856	0.843379	0.04870754
5	200	1576222774	10.431	80.154	-956.358	5.877862	5.969466	11.83206	-199	-423	440	0.04043974	-0.5330362	0.8437451	0.04828028
5	200	1576222774	12.261	82.35	-949.221	5.358778	-0.1832061	12.76336	-200	-423	440	0.04086056	-0.5326396	0.8439894	0.04803614
5	200	1576222774	-5.612	53.375	-962.824	7.160306	-4.625954	9.465649	-200	-423	440	0.04086713	-0.5320292	0.8443861	0.04782251
5	200	1576222774	24.644	66.734	-951.722	9.312977	-8.671756	5.496183	-200	-422	438	0.04185214	-0.531724	0.8445387	0.04766991
5	200	1576222774	-45.018	80.764	-953.552	17.1145	-15.26718	4.91603	-199	-422	439	0.04291254	-0.5314189	0.8446913	0.04742577
5	200	1576222774	-52.338	137.189	-988.261	12.54962	-17.49618	10.21374	-199	-422	439	0.04350569	-0.5311441	0.8448439	0.04724265
5	200	1576222774	-5.49	46.543	-1011.075	-2.10687	-18.25954	8.21374	-198	-422	439	0.04470975	-0.5305339	0.8451492	0.04751732
5	200	1576222774	24.827	-22.753	-1007.781	-5.587786	-9.557252	11.87786	-198	-422	439	0.0450226	-0.5302286	0.8453017	0.04791406
5	200	1576222774	22.265	-43.432	-928.969	-7.679389	-4.793893	19.78626	-196	-421	438	0.0457749	-0.5294351	0.8457289	0.04843288
5	200	1576222774	-8.418	-85.644	-927.81	-3.08397	-3.526718	24.73282	-196	-421	438	0.04534514	-0.5287638	0.8461562	0.04870754
5	200	1576222774	33.55	-25.376	-974.353	-5.664122	-3.282443	22.50382	-197	-421	440	0.04601905	-0.527604	0.8468276	0.04898221
5	200	1576222774	27.511	-5.246	-991.067	-8.80916	-3.29771	14.53435	-197	-421	440	0.04584126	-0.5270547	0.8471633	0.04925688
5	200	1576222774	-36.539	44.652	-984.845	-17.74046	2.229008	13.83206	-198	-422	438	0.04540425	-0.5264749	0.8474991	0.05008088
5	200	1576222774	11.895	17.141	-933.239	-14.07634	-1.465649	16.27481	-198	-422	438	0.04507487	-0.526017	0.8477737	0.05053865
5	200	1576222774	41.846	31.903	-1013.454	-15.83206	-3.877863	18.50382	-196	-422	438	0.04557459	-0.5252541	0.8481704	0.05136265
5	200	1576222774	27.572	34.77	-943.487	-14.24428	-5.29771	21.03817	-196	-422	438	0.04516337	-0.5246437	0.8485366	0.05191198
5	200	1576222774	40.809	57.767	-1021.75	-15.58779	1.526718	7.206107	-197	-423	437	0.04505767	-0.5240333	0.8488724	0.05267495
5	200	1576222774	1.037	-25.01	-980.331	-19.67939	7.435114	12.74809	-197	-423	437	0.04483688	-0.5237586	0.849025	0.05313272
5	200	1576222774	-33.733	-10.248	-983.93	-23.75573	9.129771	14.35114	-197	-424	437	0.04418541	-0.5231483	0.8493912	0.05383465
5	200	1576222774	-46.543	-21.045	-949.038	-21.74046	9.969465	14.41221	-197	-424	437	0.04298609	-0.5227516	0.8496659	0.05432295
5	200	1576222774	9.943	5.49	-940.559	-17.19084	7.801527	16.90076	-197	-427	434	0.04258137	-0.5221717	0.8500015	0.05496383
5	200	1576222774	14.091	28.426	-947.33	-12.77863	6.305344	21.51145	-197	-427	434	0.04193609	-0.5215919	0.8503678	0.05529954
5	200	1576222774	4.331	43.493	-972.828	-12.21374	14.0458	26.30534	-198	-427	436	0.04180226	-0.5205237	0.8510087	0.05560473
5	200	1576222774	-46.36	90.585	-982.588	-12.18321	17.00763	34.94656	-198	-427	436	0.04121785	-0.5196082	0.8515885	0.0557268
5	200	1576222774	1.891	57.584	-957.456	-9.160305	16.87023	33.17557	-199	-426	435	0.0399832	-0.5179906	0.8526261	0.05581835
5	200	1576222774	-5.246	82.472	-992.043	-9.648855	14.48855	29.38931	-199	-426	435	0.03941794	-0.5170751	0.853206	0.05584887
5	200	1576222774	-0.671	118.218	-1000.034	-20.79389	23.64886	27.37405	-201	-427	434	0.03825926	-0.5158849	0.8539689	0.05600147
5	200	1576222774	-79.666	110.959	-938.729	-9.450381	24.44275	24.73282	-201	-427	434	0.03716555	-0.5151525	0.8544572	0.05603198
5	200	1576222774	-177.998	76.616	-903.898	-12.73282	11.12977	43.12977	-203	-427	433	0.03637204	-0.5136876	0.8553728	0.05603198
5	200	1576222774	-149.145	20.374	-916.098	-12.99237	9.236641	52.50382	-203	-427	433	0.0360709	-0.5122532	0.8562273	0.05630665
5	200	1576222774	-88.45	59.414	-899.018	-4.717557	11.81679	62.19847	-204	-429	433	0.03505693	-0.5096896	0.8577837	0.05652028
5	200	1576222774	-138.226	154.696	-929.518	10.41221	5.251908	68.06107	-204	-429	433	0.0345974	-0.5077364	0.858974	0.05630665
5	200	1576222774	-132.614	-66.368	-940.559	10.06107	3.389313	59.61832	-207	-426	432	0.03520369	-0.5047456	0.8607441	0.05578784
5	200	1576222774	-91.622	-0.183	-938.241	4.70229	1.954198	56.33588	-207	-426	432	0.03474011	-0.5029756	0.8618122	0.0555742
5	200	1576222774	-54.351	40.077	-1006.866	-1.862595	-1.328244	66.09161	-208	-424	432	0.03482065	-0.5001984	0.8634297	0.05548265
5	200	1576222774	-61.183	60.451	-970.388	-1.847328	-7.725191	75.12977	-208	-424	432	0.0352443	-0.4980316	0.8646504	0.05569628
5	200	1576222774	-72.163	60.512	-999.851	-4.427481	-5.725191	93.52672	-209	-423	433	0.03557255	-0.4941252	0.8668478	0.05612354
5	200	1576222774	-80.337	95.099	-1033.462	-9.770992	-1.450382	101.0229	-209	-423	433	0.03546852	-0.4911344	0.8685263	0.05648976
5	200	1576222774	-78.934	109.983	-1014.064	-17.70992	0.1374046	97.57252	-211	-422	433	0.03440737	-0.4865566	0.8710898	0.05728324
5	200	1576222774	-66.49	153.11	-1052.006	-19.63359	-2.931298	94.83969	-211	-422	433	0.03432238	-0.4836268	0.8726768	0.05798517
5	200	1576222774	-70.882	88.877	-1044.259	-23.31298	7.175572	105.8015	-214	-420	434	0.03375415	-0.4790491	0.8751488	0.05905332
5	200	1576222774	-55.449	123.281	-1072.868	-21.26718	17.55725	124.7634	-214	-420	434	0.03280763	-0.4755699	0.8770409	0.05963317
5	200	1576222774	-14.884	121.451	-1028.887	-19.08397	30.12214	151.8321	-216	-420	433	0.03111716	-0.4692526	0.880459	0.06021302
5	200	1576222774	13.664	152.683	-1007.659	-5.633588	37.14504	167.313	-216	-420	433	0.02949962	-0.4644002	0.8830836	0.06021302
5	200	1576222774	84.485	55.327	-959.042	-1.679389	40.06107	154.9618	-221	-419	433	0.02689428	-0.4568316	0.8871425	0.05966369
5	200	1576222774	100.528	62.83	-1006.866	-3.175573	39.67939	132.0458	-221	-419	433	0.02615725	-0.4524064	0.889462	0.05917539
5	200	1576222774	154.33	-43.127	-985.516	-13.54198	31.86259	75.20611	-228	-417	433	0.02370051	-0.4475845	0.891995	0.05874813
5	200	1576222774	170.922	23.302	-978.684	-19.43511	33.19084	25.52672	-228	-417	433	0.0225642	-0.4460585	0.8927885	0.05874813
5	200	1576222774	112.85	12.993	-948.062	-27.9542	27.28244	-31.87786	-233	-414	432	0.02133683	-0.4464248	0.8926054	0.05920591
5	200	1576222774	92.171	-4.331	-981.246	-33.60305	27.31298	-41.83206	-233	-414	432	0.01996587	-0.4476455	0.891995	0.05966369
5	200	1576222774	62.647	-77.714	-870.226	-28.9771	26.44275	-31.55725	-234	-417	432	0.01864282	-0.4494766	0.8910489	0.06045717
5	200	1576222774	69.174	-76.738	-827.587	-21.93893	24	-23.05343	-234	-417	432	0.01708112	-0.4503311	0.8906217	0.06085391
5	200	1576222774	45.689	-49.044	-884.5	-7.709924	19.83206	-12.48855	-236	-417	429	0.01677834	-0.4512466	0.8901638	0.0608539
5	200	1576222774	46.726	-42.7	-912.804	-0.9770992	20.16794	-12.65649	-236	-421	429	0.01575984	-0.4516129	0.8900113	0.06064028
5	200	1576222774	73.078	-43.371	-913.963	-2.091603	19.78626	-20.35114	-236	-421	429	0.01641744	-0.4523759	0.889645	0.06015198
5	200	1576222774	50.081	4.209	-924.882	-2.70229	18.74809	-24.45802	-236	-420	429	0.01537698	-0.4531083	0.8893093	0.05987732
5	200	1576222774	4.453	38.064	-960.323	-6.320611	15.72519	-26.01527	-236	-420	429	0.01378476	-0.454268	0.88876	0.05963317
5	200	1576222774	35.502	62.037	-966.179	-6.931298	15.81679	-32.68702	-237	-420	428	0.0144291	-0.4552141	0.8882718	0.05954162
5	200	1576222774	24.034	83.509	-996.923	-10.19847	14.38168	-35.19084	-237	-420	428	0.01374796	-0.4568316	0.8874477	0.05960265
5	200	1576222774	9.76	90.097	-958.066	-12.0458	10.39695	-32.25954	-237	-423	427	0.01325349	-0.4578997	0.8868984	0.0596942
5	200	1576222774	-55.876	62.403	-975.451	-15.19084	9.19084	-28.42748	-237	-423	427	0.01321295	-0.459273	0.886166	0.06002991
5	200	1576222774	-53.131	56.669	-962.031	-18.56489	5.908397	-28.65649	-236	-424	427	0.01234058	-0.4601276	0.8857082	0.06042665
5	200	1576222774	-71.858	48.983	-945.073	-22.27481	0.2900763	-34.58015	-236	-424	427	0.01161658	-0.4615619	0.8849147	0.06125065
5	200	1576222774	6.161	57.767	-1017.968	-25.70992	2.534351	-40.03053	-236	-426	426	0.01193046	-0.4626911	0.8842738	0.06192205
5	200	1576222774	61.61	69.235	-994.971	-27.32825	0.6717557	-47.22137	-236	-426	426	0.01243201	-0.4647359	0.8831142	0.06305125
5	200	1576222774	96.197	79.666	-1012.966	-33.66412	4.396946	-44.30534	-233	-428	426	0.01167033	-0.4661397	0.8823206	0.06393628
5	200	1576222774	155.916	46.909	-992.714	-40.47328	7.633588	-43.16031	-233	-428	426	0.009173972	-0.4680624	0.881222	0.06543168
5	200	1576222774	143.411	49.166	-857.782	-52.07634	7.160306	-53.48092	-234	-432	425	0.009814331	-0.4695273	0.8803369	0.06674398
5	200	1576222774	100.894	35.868	-937.57	-55.26718	-5.129771	-66.19847	-234	-432	425	0.008264801	-0.4721824	0.87875	0.06909391
5	200	1576222774	214.903	23.912	-968.924	-61.11451	-1.526718	-89.22137	-232	-436	423	0.007536792	-0.4745933	0.8773156	0.07086398
5	200	1576222774	23.668	1.403	-826.306	-78.09161	-23.25191	-98.15267	-232	-436	423	0.008432576	-0.478927	0.8746605	0.07434309
5	200	1576222774	27.084	-98.21	-748.775	-85.87786	-58.25954	-116.458	-230	-441	420	0.01032631	-0.4820704	0.8726463	0.07739495
5	200	1576222774	-80.215	105.164	-438.163	-68.68702	-141.4504	-91.34351	-230	-441	420	0.0100484	-0.4866787	0.8695028	0.08371227
5	200	1576222774	-244.671	92.11	-418.338	-17.34351	-192.5496	-51.92366	-221	-446	419	0.01451354	-0.4883267	0.868099	0.08792382
5	200	1576222774	-396.256	274.805	-695.766	104.1069	-213.5573	26.90076	-221	-446	419	0.02523403	-0.4878079	0.8678243	0.09103671
5	200	1576222774	-230.275	205.997	-1019.859	139.9237	-200.687	62.32061	-207	-441	424	0.0334339	-0.4856716	0.8687704	0.09079257
5	200	1576222774	-204.96	203.801	-1731.973	76.01527	-139.4962	120.855	-207	-441	424	0.04420496	-0.4803308	0.871334	0.0900296
5	200	1576222774	-33.123	12.749	-1720.749	15.92366	-57.31298	122.7328	-194	-427	437	0.04730788	-0.4760888	0.8734397	0.09057894
5	200	1576222774	-29.219	50.691	-951.905	47.92366	6.80916	152.855	-194	-427	437	0.04838421	-0.4698325	0.8767968	0.09024324
5	200	1576222774	332.084	-34.16	-967.338	88.19847	14.22901	122.2443	-193	-420	441	0.04897378	-0.4654683	0.8792993	0.08816797
5	200	1576222774	135.298	-102.785	-984.906	79.19084	54.44275	54.01527	-193	-420	441	0.04899386	-0.4608905	0.8821375	0.08374279
5	200	1576222774	124.501	126.575	-920.795	74.94656	63.12977	21.58779	-198	-412	444	0.04834292	-0.4597919	0.8830531	0.08044679
5	200	1576222774	-77.165	125.355	-737.002	76.65649	38.59542	-14.59542	-198	-412	444	0.04804921	-0.4599139	0.8834498	0.07541124
5	200	1576222774	-584.136	222.345	-638.975	94.1832	-12.06107	25.9084	-201	-407	446	0.04924504	-0.4597308	0.8837245	0.07248146
5	200	1576222774	-84.729	19.703	-986.675	66.33588	-40.48855	40.06107	-201	-397	453	0.05296839	-0.4571978	0.8850673	0.06942961
5	200	1576222774	-26.23	-61.549	-1163.026	19.29771	-48.33588	35.74046	-201	-397	453	0.05481596	-0.4558245	0.8857082	0.06884976
5	200	1576222774	64.111	-286.09	-1058.838	-11.78626	-37.23664	24.91603	-198	-394	454	0.0568811	-0.4541459	0.8863491	0.07000946
5	200	1576222774	178.425	-380.152	-1100.989	-10.10687	-3.969466	6.503817	-198	-394	454	0.05777834	-0.4535661	0.8865322	0.07071139
5	200	1576222774	-53.619	-15.25	-944.829	14.99237	38.15267	-0.6717557	-197	-394	453	0.05727583	-0.4536271	0.8865627	0.07034516
5	200	1576222774	-110.288	160.979	-801.601	46.9313	42.13741	5.29771	-197	-394	453	0.05612686	-0.4535966	0.8867763	0.0687582
5	200	1576222774	-162.199	288.53	-976.488	58.76336	24.41221	15.72519	-199	-391	455	0.05625627	-0.4529557	0.8873562	0.06530961
5	200	1576222774	-155.611	309.758	-996.313	41.57252	29.1145	26.76336	-199	-391	455	0.05643294	-0.4522538	0.8878445	0.06335643
5	200	1576222774	-114.741	182.146	-1034.316	-0.7328244	28.59542	50.03053	-202	-387	457	0.05536127	-0.4503922	0.8889737	0.06170843
5	200	1576222774	-51.484	73.566	-1032.974	-27.35878	22.76336	51.75573	-202	-387	457	0.05434035	-0.4488052	0.8898282	0.06186102
5	200	1576222774	-68.564	-50.02	-856.257	-13.98473	26.35114	28.68702	-203	-388	456	0.05263142	-0.4470046	0.8908048	0.0623188
5	200	1576222774	-87.291	-6.466	-928.359	-9.251908	21.32825	17.0687	-203	-388	456	0.05216446	-0.4463332	0.891171	0.06228828
5	200	1576222774	5.368	-19.276	-838.872	-9.679389	3.099237	3.450382	-206	-388	454	0.05153854	-0.4459365	0.8913846	0.06259346
5	200	1576222774	-30.866	-35.746	-832.162	4.335878	-6.732824	6.732824	-206	-388	454	0.05146563	-0.4457533	0.8914762	0.0626545
5	200	1576222774	-137.799	18.788	-858.819	-6.580153	-6.580153	2.946565	-206	-387	456	0.05184296	-0.4454482	0.8915982	0.06277657
5	200	1576222774	-147.742	78.324	-982.161	-17.78626	-2.977099	6.122138	-206	-387	456	0.05210787	-0.4452956	0.8916288	0.06320383
5	200	1576222774	-117.913	110.349	-834.907	-1.526718	-4.839694	6.48855	-205	-389	457	0.0519578	-0.4450514	0.8917204	0.06375317
5	200	1576222774	-138.226	137.128	-921.405	21.72519	-21.49618	4.656488	-205	-389	457	0.05239988	-0.4447767	0.8918424	0.06360058
5	200	1576222774	-180.194	140.91	-1028.521	55.54198	-24.36641	2.259542	-204	-388	458	0.05508821	-0.4444411	0.891934	0.06237983
5	200	1576222774	-129.198	110.166	-1022.238	82.82442	-17.23664	3.282443	-204	-388	458	0.05643188	-0.4441664	0.8921171	0.06048769
5	200	1576222774	-163.541	120.109	-1025.227	87.08397	-10.96183	6.152672	-202	-382	458	0.05955881	-0.4435865	0.8924528	0.05667287
5	200	1576222774	-172.996	85.461	-1115.385	74.06107	-5.664122	1.435115	-202	-382	458	0.06110885	-0.4432509	0.8926665	0.05423139
5	200	1576222774	-204.228	40.626	-1066.707	25.61832	9.053435	-7.526718	-200	-377	459	0.06209145	-0.4431898	0.892758	0.05206458
5	200	1576222774	-193.37	48.007	-1042.002	-17.58779	19.96947	-11.31298	-200	-377	459	0.06185341	-0.4434645	0.8926665	0.05157629
5	200	1576222774	-197.091	103.7	-1138.687	1.862595	8.259542	-4.900764	-201	-377	460	0.06146334	-0.4439528	0.8924223	0.05206458
5	200	1576222774	-191.54	58.011	-869.494	-9.893129	15.69466	-11.54198	-201	-377	460	0.06098435	-0.4441664	0.8923612	0.05185095
5	200	1576222774	-126.331	49.898	-1046.821	2.992366	10.51908	-12.50382	-202	-380	460	0.06103516	-0.4446852	0.8921171	0.05154576
5	200	1576222774	-128.039	19.154	-972.706	-3.908397	10	-10.29008	-202	-380	460	0.06080082	-0.4450514	0.8919645	0.05130161
5	200	1576222774	-78.263	-15.738	-990.701	-6.259542	15.34351	-12.0916	-201	-379	461	0.06013694	-0.4454787	0.8918119	0.05102695
5	200	1576222774	-108.336	42.395	-948.489	-12.06107	10.62595	-13.45038	-201	-379	461	0.06008737	-0.445906	0.8915982	0.05108799
5	200	1576222774	-117.425	-18.178	-1052.677	-18.19847	17.05343	-14.0458	-202	-379	460	0.05936434	-0.4465773	0.891293	0.05139317
5	200	1576222774	-78.324	-70.211	-1042.978	-24.70229	26.73282	-20.73282	-202	-379	460	0.05821308	-0.4471267	0.8910794	0.05163732
5	200	1576222774	-141.764	22.631	-969.229	-36.79389	56.56488	-29.98473	-202	-381	459	0.05574004	-0.4485916	0.8904691	0.05218665
5	200	1576222774	-219.112	52.765	-899.872	-38.9771	38.45802	-24.62595	-202	-381	459	0.0538965	-0.4495071	0.8901029	0.05249184
5	200	1576222774	-111.386	15.799	-1138.016	-53.74046	56.76336	-27.78626	-204	-384	457	0.05138682	-0.45085	0.889523	0.05331584
5	200	1576222774	-91.866	26.169	-948.428	-52.62595	63.17557	-31.19084	-204	-384	457	0.04847467	-0.4519486	0.8890957	0.05386517
5	200	1576222774	-9.638	21.411	-915.122	-47.43512	13.58779	-32.38168	-207	-390	455	0.04590233	-0.4536271	0.8883023	0.05508591
5	200	1576222774	18.056	-45.872	-833.443	-78.09161	12.80916	-41.34351	-207	-390	455	0.044621	-0.4549089	0.8876003	0.05685598
5	200	1576222774	87.291	-41.663	-897.432	-92.22901	21.96947	-46.9771	-208	-394	452	0.04280684	-0.4571368	0.8863186	0.06027406
5	200	1576222774	37.576	-28.914	-901.519	-80.94656	-26.9313	-40.71756	-208	-394	452	0.04126554	-0.4585406	0.8854945	0.06274606
5	200	1576222774	60.695	44.835	-829.173	-106.6565	-57.89313	12.29008	-207	-400	450	0.0415821	-0.4591815	0.8847316	0.06836146
5	200	1576222774	17.446	31.11	-725.351	-71.98473	-48.47328	28.76336	-207	-400	450	0.04182222	-0.4585406	0.8847621	0.07202368
5	200	1576222774	-63.806	-36.295	-784.216	-29.14504	-79.89313	39.51145	-204	-408	448	0.0434824	-0.4564959	0.8854335	0.0756859
5	200	1576222774	11.468	-89.731	-1088.972	-27.14504	-60.35115	16.94657	-204	-408	448	0.04518317	-0.4554583	0.8857082	0.07770013
5	200	1576222774	-40.992	32.635	-1077.626	-9.358779	-23.58779	13.63359	-200	-410	448	0.04681456	-0.4545121	0.8859524	0.0794702
5	200	1576222774	-99.064	104.859	-794.464	2.290076	-15.51145	18.53435	-200	-410	448	0.04783599	-0.4539629	0.8861355	0.07995851
5	200	1576222774	-85.827	75.274	-932.629	18.45802	-45.60305	18.18321	-199	-412	450	0.04947568	-0.4527726	0.8866543	0.0799585
5	200	1576222774	-12.566	-17.08	-66.063	57.60305	-134.3664	6.015267	-199	-412	450	0.05246525	-0.4521317	0.8867763	0.08032472
5	200	1576222774	-10.98	199.653	-539	-33.8168	-72.83969	17.55725	-196	-411	451	0.05930959	-0.4510331	0.8866543	0.08304086
5	200	1576222774	34.587	123.952	-1175.775	-56.15267	41.11451	33.77099	-189	-413	451	0.05908203	-0.4502701	0.8868984	0.08471938
5	200	1576222774	-22.021	114.985	-1066.646	-79.8168	122.7786	37.54198	-189	-413	451	0.05284446	-0.4490799	0.8877835	0.08587909
5	200	1576222774	-3.172	106.079	-897.676	-84.41222	103.9847	31.78626	-196	-419	439	0.04805603	-0.448439	0.8883023	0.08667257
5	200	1576222774	47.519	100.772	-1005.768	-21.14504	92.61069	14.10687	-196	-419	439	0.04319082	-0.4479202	0.8887601	0.08722191
5	200	1576222774	99.796	-14.274	-973.804	-42.99237	4.793893	-11.52672	-204	-422	443	0.04098728	-0.4479812	0.8888516	0.08703879
5	200	1576222774	-100.223	70.15	-1059.326	-69.70992	-29.38931	-10.44275	-204	-422	443	0.04050307	-0.4487136	0.8881192	0.09088412
5	200	1576222774	-7.625	79.117	-996.13	-64.32061	-31.92366	-5.206107	-203	-427	442	0.04111505	-0.4489578	0.8876919	0.09353923
5	200	1576222774	23.607	100.04	-954.223	-28.61069	-2.274809	-15.89313	-203	-427	442	0.04101708	-0.4494766	0.8871731	0.09598071
5	200	1576222774	-74.298	157.441	-933.788	-17.28244	2.885496	-12.47328	-200	-429	439	0.04109257	-0.4499344	0.8868679	0.0966216
5	200	1576222774	-131.211	160.186	-914.695	-17.98473	1.572519	-15.66412	-200	-429	439	0.04026322	-0.4506058	0.8865017	0.09720145
5	200	1576222774	-154.33	106.201	-958.737	-20.22901	1.068702	-17.48092	-200	-431	440	0.04010897	-0.4510941	0.8861965	0.09778131
5	200	1576222774	-75.579	122.976	-995.459	-19.45038	3.526718	-23.83206	-200	-431	440	0.04014313	-0.4520096	0.8856471	0.09851375
5	200	1576222774	-111.386	129.076	-988.261	-21.26718	-0.519084	-20.62595	-199	-432	442	0.03962907	-0.4527116	0.8852504	0.09906308
5	200	1576222774	-148.962	168.055	-933.117	-20.64122	-2.274809	-11.78626	-199	-432	442	0.04012902	-0.4534135	0.8847621	0.1000092
5	200	1576222774	-150.487	133.407	-944.829	-16.01527	1.557252	-6.335878	-199	-434	442	0.03968693	-0.4536882	0.884579	0.1005585
5	200	1576222774	-155.977	135.603	-944.097	-12.58015	6.259542	3.267176	-199	-434	442	0.03936119	-0.4537797	0.8844875	0.1010773
5	200	1576222774	-123.891	117.059	-962.824	-9.801527	13.03817	9.419847	-198	-433	440	0.03929527	-0.4535661	0.884579	0.1012604
5	200	1576222774	-95.404	106.384	-942.999	-6.656488	17.98473	12.32061	-198	-433	440	0.03838214	-0.4531083	0.8848537	0.1012604
5	200	1576222774	-71.919	78.568	-917.928	-1.40458	15.58779	12.9771	-198	-434	441	0.03738302	-0.4527421	0.8850978	0.1011383
5	200	1576222774	-53.314	110.776	-924.15	1.603053	4.061069	9.61832	-198	-434	441	0.03726085	-0.4522233	0.885403	0.1008332
5	200	1576222774	-61.122	98.759	-922.503	3.465649	-4.412214	7.61832	-201	-434	442	0.03758338	-0.4519181	0.8855556	0.1007416
5	200	1576222774	-58.743	105.286	-974.963	4.580153	-7.755725	7.755725	-201	-434	442	0.0385549	-0.4514908	0.8857387	0.1006806
5	200	1576222774	-95.099	119.438	-960.994	1.389313	-7.51145	9.648855	-199	-434	441	0.03827484	-0.4511551	0.8859218	0.1006806
5	200	1576222774	-84.851	130.174	-968.07	-1.725191	-2.10687	8.625955	-199	-434	441	0.0391113	-0.4506363	0.8861355	0.1008026
5	200	1576222774	-89.67	130.601	-963.068	-1.755725	4.274809	7.954198	-199	-433	441	0.03873766	-0.4503616	0.886288	0.1008332
5	200	1576222774	-85.644	144.692	-935.191	0	8.992367	10.01527	-199	-433	441	0.03843102	-0.4499344	0.8865322	0.1007111
5	200	1576222774	-77.653	117.669	-930.372	3.89313	9.29771	10.68702	-199	-434	443	0.03869533	-0.4495987	0.8867153	0.1004975
5	200	1576222774	-61.305	139.568	-959.53	5.557252	8.671756	12.85496	-199	-434	443	0.03848604	-0.4490494	0.887051	0.1000702
5	200	1576222774	-37.698	142.008	-967.033	3.923664	9.343512	10.96183	-200	-431	443	0.03827717	-0.4486526	0.8872951	0.09976501
5	200	1576222774	-25.01	134.566	-983.259	-3.328244	9.725191	9.709924	-200	-431	443	0.03798643	-0.4481948	0.8875698	0.09949034
5	200	1576222774	-31.842	133.224	-950.136	-5.725191	9.740458	8.152672	-201	-431	442	0.0377377	-0.4479202	0.8877224	0.09945982
5	200	1576222774	-26.047	172.081	-929.884	-4.030534	4.748092	-1.938931	-201	-431	442	0.03050879	-0.4474013	0.8884549	0.09772027
5	200	1576222774	-58.621	176.9	-911.218	-1.725191	0.8244275	-7.312977	-201	-432	442	0.02747965	-0.4473403	0.888638	0.09723197
5	200	1576222774	-99.918	159.698	-960.872	1.526718	-2.992366	-10.24428	-202	-431	442	0.02754573	-0.4477065	0.8884549	0.09720145
5	200	1576222774	-129.808	135.725	-964.715	2.549618	-2.854962	-10	-202	-431	442	0.02820749	-0.4479812	0.8883023	0.09714042
5	200	1576222774	-122.61	115.9	-989.298	-4.412214	4.259542	-11.81679	-201	-431	441	0.02825077	-0.4484085	0.8880886	0.0971099
5	200	1576222774	-256.932	27.511	-1034.133	-18.03053	19.83206	41.09924	-201	-431	441	0.02832347	-0.4483169	0.8881192	0.09723197
5	200	1576222774	-722.118	-218.746	-1083.97	1.969466	117.7557	187.6031	-204	-431	441	0.02485083	-0.4417554	0.8915677	0.09665212
5	200	1576222774	-220.82	35.807	-979.172	6.580153	119.9389	148.7328	-204	-431	441	0.02050781	-0.4369335	0.8942534	0.09475997
5	200	1576222774	125.965	228.628	-706.99	41.69466	72.8855	120.2901	-215	-427	441	0.01568972	-0.4308908	0.8976104	0.09155553
5	200	1576222774	270.169	307.989	-852.963	35.9084	40.64122	92.41222	-215	-427	441	0.01454226	-0.4277474	0.8993499	0.08938871
5	200	1576222774	116.754	225.944	-872.849	31.83206	18.61069	75.92367	-222	-422	440	0.01485651	-0.4239021	0.9013641	0.08734398
5	200	1576222774	66.917	149.023	-967.277	27.14504	13.23664	67.34351	-222	-422	440	0.01357782	-0.4216437	0.9025544	0.08618427
5	200	1576222774	77.592	110.166	-1058.716	10	12.07634	51.12977	-226	-420	440	0.0145566	-0.418836	0.9039583	0.08499405
5	200	1576222775	56.181	190.869	-1037	-3.587786	13.28244	41.31298	-226	-420	440	0.01480225	-0.4173711	0.9046602	0.08468886
5	200	1576222775	55.083	164.639	-998.997	-19.67939	4.244275	17.81679	-226	-418	440	0.01294406	-0.4159062	0.9053315	0.08502456
5	200	1576222775	63.257	77.653	-1009.55	-35.05344	-1.267176	0.6259542	-226	-418	440	0.0109183	-0.4156621	0.9053926	0.08584857
5	200	1576222775	38.125	215.94	-1001.62	-51.98473	-1.267176	-9.709924	-226	-421	440	0.01174923	-0.4159368	0.9050569	0.08792382
5	200	1576222775	46.055	178.547	-991.067	-53.14504	-2.458015	-10.42748	-226	-421	440	0.01176444	-0.4162419	0.9047517	0.08960234
5	200	1576222775	23.851	124.318	-919.758	-48.29008	0.3358779	-17.40458	-226	-424	438	0.01072275	-0.4169439	0.9042024	0.09198279
5	200	1576222775	14.579	72.224	-895.48	-40.03053	0.5496183	-21.12977	-226	-424	438	0.009979948	-0.4175237	0.9038057	0.0933256
5	200	1576222775	59.597	32.025	-886.086	-21.86259	-1.709924	-25.23664	-225	-429	436	0.01097276	-0.4185614	0.9031647	0.09475997
5	200	1576222775	56.669	29.219	-883.402	-8.778626	-1.038168	-26.44275	-225	-429	436	0.008900257	-0.4193548	0.902768	0.09524827
5	200	1576222775	44.957	37.027	-897.31	11.25191	-1.083969	-25.32825	-223	-431	436	0.01068377	-0.4205146	0.9022187	0.09515671
5	200	1576222775	30.988	33.245	-909.266	20.35114	-1.862595	-22.8855	-223	-431	436	0.01210898	-0.421247	0.9019135	0.0946379
5	200	1576222775	33.489	45.933	-979.172	26.64122	-0.8549618	-22.30534	-222	-431	434	0.01098633	-0.4222541	0.9015778	0.0934782
5	200	1576222775	10.126	93.208	-975.329	28.59542	1.908397	-19.51145	-222	-431	434	0.01160374	-0.422895	0.9013641	0.09256264
5	200	1576222775	-29.646	97.966	-963.739	31.20611	3.923664	-14.53435	-223	-428	436	0.01263177	-0.4236579	0.9011504	0.09100619
5	200	1576222775	6.527	13.725	-971.73	30.29008	0.2442748	-21.37405	-223	-428	436	0.0135074	-0.4241768	0.9009979	0.08996857
5	200	1576222775	-57.828	140.544	-1031.388	21.57252	-1.282443	-13.64886	-222	-425	438	0.01437116	-0.4250008	0.9007233	0.08868679
5	200	1576222775	-105.103	178.913	-1040.233	10.70229	0.8854962	-2.793893	-222	-425	438	0.01505578	-0.4252144	0.9006623	0.08816798
5	200	1576222775	-136.03	187.575	-998.875	2.900763	-5.08397	13.00763	-221	-425	439	0.01467283	-0.4249092	0.9008453	0.08783227
5	200	1576222775	-123.159	169.763	-1003.084	-3.648855	-7.328244	16.0458	-221	-425	439	0.01579573	-0.4243904	0.901059	0.08795434
5	200	1576222775	-115.412	164.09	-1031.754	-17.54198	-7.251908	9.40458	-220	-425	439	0.01607068	-0.4236885	0.9013336	0.08847316
5	200	1576222775	-95.526	143.167	-975.329	-30.21374	-5.053435	4.885496	-220	-425	439	0.01424619	-0.4234444	0.9013948	0.08932769
5	200	1576222775	-116.754	180.011	-965.752	-26.51908	-12.53435	1.007634	-219	-425	437	0.01557916	-0.4232612	0.9013031	0.09088412
5	200	1576222775	-80.154	93.574	-984.418	-37.03817	-13.19084	-2.366412	-219	-425	437	0.01488257	-0.4232307	0.9012116	0.09204382
5	200	1576222775	-64.965	127.307	-902.678	-29.32825	-16.68702	-8.961832	-219	-428	436	0.01564597	-0.4234748	0.9008759	0.09405804
5	200	1576222775	-26.108	130.845	-940.498	-20.35114	-19.69466	-4.70229	-219	-428	436	0.01586538	-0.4235664	0.9007233	0.09506515
5	200	1576222775	59.109	-46.116	-990.03	-31.87786	-13.87786	-14.79389	-217	-429	437	0.01679432	-0.4238411	0.9004181	0.09656057
5	200	1576222775	159.454	-42.273	-977.098	-40.68702	-7.053435	-31.89313	-217	-429	437	0.01579762	-0.424543	0.8999603	0.09790338
5	200	1576222775	139.995	111.935	-883.158	-14.36641	-11.46565	-44.10687	-216	-432	436	0.01560401	-0.4262826	0.8989837	0.09933775
5	200	1576222775	117.364	77.836	-919.026	-11.89313	-6.198473	-48.8855	-216	-432	436	0.0162404	-0.4276864	0.8982513	0.09982605
5	200	1576222775	127.612	24.217	-943.731	-11.52672	0.7480916	-63.37405	-214	-435	435	0.01636107	-0.43025	0.8969695	0.1003143
5	200	1576222775	158.112	96.319	-917.928	1.053435	-1.603053	-70.82442	-214	-435	435	0.01804825	-0.4323252	0.8959319	0.1003754
5	200	1576222775	175.924	25.254	-953.979	2.21374	-0.3206107	-82.91603	-212	-436	435	0.01737863	-0.4358348	0.8942534	0.1002838
5	200	1576222775	81.496	31.415	-1031.815	1.099237	0.9770992	-88.56489	-212	-436	435	0.0179655	-0.4384594	0.8929716	0.1001617
5	200	1576222775	150.67	37.454	-1004.426	2.152672	15.05344	-96.94656	-209	-437	434	0.01875121	-0.442793	0.8908658	0.09970397
5	200	1576222775	87.474	89.121	-927.322	3.038168	13.38931	-98.13741	-209	-437	434	0.01935652	-0.4458449	0.8893704	0.09933775
5	200	1576222775	13.725	111.264	-928.481	9.206107	17.22137	-96.10687	-207	-438	434	0.01792232	-0.4503616	0.8872036	0.0986053
5	200	1576222775	-61.366	50.569	-933.727	11.38931	19.40458	-97.64886	-207	-438	434	0.018802	-0.4533525	0.8857387	0.09790338
5	200	1576222775	-27.084	83.997	-959.042	17.54198	23.52672	-99.03817	-206	-440	434	0.01940726	-0.4579913	0.8834803	0.09659109
5	200	1576222775	-123.525	119.194	-950.441	18.16794	22.42748	-96.33588	-203	-440	434	0.01933649	-0.4610126	0.8820155	0.09561449
5	200	1576222775	-282.857	273.768	-856.135	23.64886	15.08397	-76.45802	-203	-440	434	0.01867636	-0.4651326	0.8800318	0.09405804
5	200	1576222775	-285.358	273.768	-949.404	24.48855	15.48092	-55.49618	-202	-441	434	0.01971804	-0.4671468	0.8790551	0.0929899
5	200	1576222775	-249.673	246.196	-946.171	25.81679	12.0916	-54.30534	-202	-441	434	0.02008344	-0.4696188	0.8778954	0.09140293
5	200	1576222775	-218.746	210.572	-947.391	25.35878	6.244275	-67.35878	-201	-439	428	0.01992553	-0.4714194	0.8770409	0.09036531
5	200	1576222775	-123.464	181.353	-1005.097	24.32061	4.320611	-83.34351	-201	-439	428	0.02140655	-0.4748985	0.8752708	0.08896145
5	200	1576222775	-60.939	164.334	-922.32	24.94657	0.01526718	-85.98473	-198	-439	434	0.02165708	-0.4774621	0.8739585	0.08807642
5	200	1576222775	-111.813	206.607	-876.875	25.0229	-5.541985	-70.01527	-198	-439	434	0.02312773	-0.4808801	0.872158	0.08694723
5	200	1576222775	-41.419	134.688	-988.017	26.9771	-3.114504	-63.64885	-197	-438	436	0.02336108	-0.4828333	0.8711509	0.08615375
5	200	1576222775	19.642	74.359	-941.291	31.98473	5.328244	-59.43512	-197	-438	436	0.02518201	-0.485519	0.869747	0.08471938
5	200	1576222775	-143.045	196.176	-933.605	28.38168	-1.755725	-47.22137	-195	-438	435	0.02549604	-0.4871059	0.8689535	0.08365124
5	200	1576222775	-131.638	109.495	-942.999	25.12977	2.091603	-45.20611	-195	-438	435	0.02703024	-0.4890591	0.8679464	0.08221687
5	200	1576222775	-217.709	140.849	-993.324	19.45038	7.496183	-41.58779	-193	-436	436	0.02775161	-0.4903409	0.867275	0.08142339
5	200	1576222775	-195.688	133.712	-935.313	10.64122	9.19084	-44	-193	-436	436	0.02779667	-0.4923246	0.8662375	0.08047732
5	200	1576222775	-190.381	163.419	-919.148	8.549619	7.328244	-40.65649	-192	-437	436	0.02747748	-0.4936064	0.865566	0.0799585
5	200	1576222775	-223.992	191.174	-933.178	8.122137	2.442748	-19.9542	-192	-437	436	0.02800922	-0.4950102	0.864803	0.07934812
5	200	1576222775	-191.418	163.114	-909.022	2.931298	-0.8396947	-4.625954	-192	-436	436	0.02779131	-0.4953764	0.8646199	0.07913449
5	200	1576222775	-161.284	163.053	-984.967	2.473282	-0.3969466	14	-192	-436	436	0.02902502	-0.4950102	0.864803	0.07898191
5	200	1576222775	-165.127	122.976	-975.512	-2.091603	-3.557252	22.8855	-192	-435	430	0.02834135	-0.4943998	0.8651692	0.07904294
5	200	1576222775	-155.062	70.028	-967.094	-8.167939	-8.748092	25.92366	-192	-435	430	0.028484	-0.4932096	0.8658101	0.07940916
5	200	1576222775	-151.585	79.422	-1005.768	-11.08397	-9.328244	28.21374	-191	-436	436	0.02907427	-0.4923551	0.8662374	0.07983642
5	200	1576222775	-128.832	117.181	-964.776	-11.48092	-13.1145	34.99237	-191	-436	436	0.02925921	-0.4908597	0.8670003	0.08069094
5	200	1576222775	-106.506	101.26	-997.533	-11.48092	-12.67176	41.57252	-191	-435	437	0.02911012	-0.489639	0.8676413	0.0812708
5	200	1576222775	-73.932	99.43	-1001.01	-21.05343	-12.76336	48.38168	-191	-435	437	0.03011453	-0.4874417	0.86874	0.08236946
5	200	1576222775	10.675	106.994	-1009.001	-22.79389	-20.41221	44.77863	-191	-436	435	0.02988106	-0.4859768	0.8694723	0.08337657
5	200	1576222775	42.578	125.477	-1090.009	-20.29008	-9.129771	32.0916	-191	-436	435	0.02985212	-0.4840541	0.8704184	0.08468886
5	200	1576222775	1.159	59.414	-994.239	-14.73282	-11.31298	17.69466	-191	-436	435	0.02994084	-0.4832606	0.8707846	0.08542131
5	200	1576222775	56.791	110.105	-1070.428	-14.33588	-7.251908	-3.267176	-191	-436	435	0.03016496	-0.4828638	0.8709067	0.08633687
5	200	1576222775	81.496	95.587	-956.358	-9.755725	-5.038168	-6.366412	-190	-437	436	0.03001937	-0.4830165	0.8707846	0.08676412
5	200	1576222775	-94.55	124.379	-922.015	2.351145	-5.89313	-1.007634	-190	-437	436	0.03118126	-0.483108	0.8706626	0.08706931
5	200	1576222775	-40.809	56.181	-914.695	5.19084	-14.33588	1.007634	-191	-437	436	0.03165837	-0.4830165	0.8706931	0.08709983
5	200	1576222775	-118.645	146.095	-988.444	13.63359	-15.89313	18.36641	-191	-437	436	0.03206432	-0.4824061	0.8710288	0.08697775
5	200	1576222775	-119.133	83.509	-919.636	21.9084	-15.52672	22.70229	-190	-436	436	0.0333035	-0.4817041	0.871395	0.0867336
5	200	1576222775	-128.954	8.113	-929.091	12.25954	-9.358779	23.17557	-190	-434	436	0.03374886	-0.4805445	0.8720664	0.08624531
5	200	1576222775	-142.74	71.736	-1008.147	23.20611	-11.29771	25.03817	-190	-434	436	0.03501525	-0.4796594	0.8725547	0.08572649
5	200	1576222775	-180.865	22.143	-929.884	11.80153	3.938931	21.34351	-190	-430	437	0.0356554	-0.4784692	0.8732567	0.08496354
5	200	1576222775	-218.563	10.919	-901.336	3.847328	10.15267	21.96947	-190	-430	437	0.0360246	-0.4777367	0.8736839	0.08453627
5	200	1576222775	-201.361	-47.031	-1023.458	-17.43511	6.458015	10.16794	-190	-429	437	0.03522993	-0.4769128	0.8741723	0.08447524
5	200	1576222775	-246.745	5.734	-667.157	-46.32061	-0.7938932	-2.305344	-190	-429	437	0.03457414	-0.4768822	0.8741112	0.08554338
5	200	1576222775	-140.361	35.502	-1079.883	-35.64885	-20.22901	0.5648855	-189	-430	437	0.03597825	-0.4765466	0.8741112	0.08682517
5	200	1576222775	-201.666	-22.326	-1133.197	-79.80153	1.557252	-19.98473	-189	-430	437	0.0351359	-0.4768822	0.8737754	0.08868679
5	200	1576222775	-172.996	163.724	-637.267	-40.16794	-29.86259	-22.24427	-187	-434	435	0.03442469	-0.4780114	0.8728294	0.09213538
5	200	1576222775	-119.499	292.373	-1261.846	-10.54962	-26.68702	-1.603053	-187	-434	435	0.03468774	-0.4782251	0.8725852	0.09323405
5	200	1576222775	-164.517	4.453	-1103.49	-51.52672	28.01527	-6.671756	-185	-436	435	0.0341509	-0.4783776	0.8723716	0.0946379
5	200	1576222775	-106.018	131.76	-928.176	-21.55725	8.916031	0.4732825	-185	-436	435	0.03272031	-0.4785607	0.8722495	0.09533983
5	200	1576222775	-100.223	89.975	-1017.297	-16.59542	9.328244	17.0229	-186	-439	432	0.03194606	-0.4781945	0.8724021	0.09604175
5	200	1576222775	-106.75	-30.378	-1026.081	-30.06107	22.32061	14.51908	-186	-439	432	0.03128907	-0.4777062	0.8726463	0.09646901
5	200	1576222775	-74.847	-49.044	-978.135	-44.1832	25.32825	7.969466	-188	-440	432	0.02995776	-0.477401	0.8727378	0.09756768
5	200	1576222775	-39.711	-25.986	-891.149	-49.03817	21.64886	-0.9160305	-188	-440	432	0.02806024	-0.4773095	0.8727378	0.09857479
5	200	1576222775	-95.465	155.062	-831.674	-46.13741	2.10687	1.89313	-190	-444	429	0.02639769	-0.4774926	0.8724632	0.1005585
5	200	1576222775	-126.209	170.556	-873.459	-30.77863	-9.480916	21.61832	-190	-444	429	0.02677768	-0.4771569	0.8724937	0.1017792
5	200	1576222775	-53.802	63.501	-1070.672	-21.19084	0.9770992	23.52672	-189	-447	428	0.02672755	-0.4760888	0.8729209	0.103122
5	200	1576222775	-7.93	40.504	-1065.731	-20.51908	19.49618	14.0916	-189	-447	428	0.0256243	-0.4755394	0.8731956	0.1036103
5	200	1576222775	-81.618	-0.183	-1053.409	-23.83206	38.24427	19.28244	-189	-449	429	0.02418841	-0.4750206	0.8735008	0.1037629
5	200	1576222775	10.248	-49.288	540.033	-4.442748	15.51145	6.244275	-189	-449	429	0.02246359	-0.4745933	0.8737754	0.1037934
5	200	1576222775	-96.075	141.764	-903.837	-6.167939	-19.72519	-12.53435	-192	-449	428	0.0237633	-0.4746544	0.8736534	0.1042512
5	200	1576222775	-142.74	111.63	-945.5	-13.20611	-14.16794	-4.824428	-192	-449	428	0.02418471	-0.4748985	0.8734397	0.1048311
5	200	1576222775	-57.34	112.24	-932.934	-6.229008	-21.45038	-21.25191	-190	-451	429	0.02452246	-0.4752953	0.873104	0.1057466
5	200	1576222775	-110.654	129.93	-978.501	0.1832061	-23.86259	-14.25954	-190	-451	429	0.02524466	-0.4757225	0.8727989	0.1061739
5	200	1576222775	-112.24	110.715	-953.125	7.114504	-26.90076	-7.664122	-187	-450	429	0.02696621	-0.4759667	0.8725547	0.1066622
5	200	1576222775	-106.994	148.352	-926.529	8.442748	-27.83206	-4.91603	-187	-450	429	0.02746229	-0.4760582	0.8724632	0.1068758
5	200	1576222775	-114.619	178.181	-1003.816	10.73282	-21.41985	5.236641	-185	-450	431	0.02952285	-0.4758446	0.8724937	0.1070284
5	200	1576222775	-108.763	135.359	-1041.514	1.801527	-13.54198	8.564885	-185	-450	431	0.03011354	-0.4755699	0.8726158	0.1070895
5	200	1576222775	-116.937	136.396	-976.427	1.29771	-1.572519	16.03053	-184	-449	432	0.03054296	-0.474807	0.8730125	0.10712
5	200	1576222775	-115.046	157.502	-954.955	0.8091603	-7.068702	11.63359	-184	-449	432	0.03056929	-0.4743492	0.8732566	0.1071505
5	200	1576222775	-101.077	186.538	-976.793	-9.083969	-13.72519	6.748092	-185	-449	433	0.03111428	-0.4738304	0.8734702	0.1075472
5	200	1576222775	-70.455	208.864	-940.437	7.480916	-9.358779	10.25954	-185	-449	433	0.03163199	-0.4734947	0.8735923	0.1078829
5	200	1576222775	-50.203	216.367	-992.531	5.908397	-12.18321	6.885496	-184	-449	431	0.03235853	-0.4729453	0.873867	0.1078524
5	200	1576222775	-29.524	208.681	-976.549	-0.7328244	-8.351145	6.38168	-184	-449	431	0.03276764	-0.4726707	0.873989	0.107944
5	200	1576222775	-35.136	206.668	-967.277	3.129771	4.931298	4.030534	-183	-448	433	0.03379386	-0.4723655	0.8741112	0.1079745
5	200	1576222775	-37.759	108.031	-954.345	6.076336	6.564886	3.969466	-183	-448	433	0.03364449	-0.4722129	0.8742332	0.1076998
5	200	1576222775	-95.038	59.841	-941.901	1.78626	9.541985	8.641221	-183	-447	433	0.03364272	-0.4719077	0.8744469	0.1073031
5	200	1576222775	-122.305	107.299	-918.904	2.534351	9.480916	10.62595	-183	-447	433	0.03260534	-0.471633	0.8746605	0.1070895
5	200	1576222775	-110.166	104.066	-929.518	8.061069	6.564886	11.98473	-184	-446	434	0.03256327	-0.4710532	0.8750267	0.1066622
5	200	1576222775	-111.325	147.986	-937.631	11.35878	3.312977	11.64886	-184	-446	434	0.03303215	-0.4706565	0.8752708	0.1062654
5	200	1576222775	-107.665	122.305	-935.74	11.57252	-0.610687	12.16794	-185	-445	434	0.03334464	-0.4700766	0.8756371	0.1057161
5	200	1576222775	-85.278	109.617	-951.783	12.30534	-2.10687	9.29771	-185	-445	434	0.0335842	-0.4696799	0.8758812	0.1053804
5	200	1576222775	-107.238	125.355	-928.359	14.77863	-2.396947	7.19084	-184	-444	434	0.03416312	-0.4691916	0.8761864	0.1048311
5	200	1576222775	-113.338	153.354	-920.002	16.79389	-2.274809	7.877862	-184	-444	434	0.03463614	-0.4689168	0.8763694	0.1043733
5	200	1576222775	-98.759	121.512	-935.984	20.59542	-2.366412	6.198473	-184	-443	437	0.03516303	-0.4684896	0.8766747	0.1035493
5	200	1576222775	-127.246	103.944	-937.326	21.28244	-2.717557	5.954198	-184	-441	439	0.03612456	-0.468215	0.8768578	0.1029084
5	200	1576222775	-139.507	143.777	-966.179	23.70992	-4.503817	9.648855	-184	-441	439	0.0369734	-0.4677267	0.8771935	0.1019623
5	200	1576222775	-122.305	116.144	-964.532	25.16031	-4.137404	7.862596	-184	-440	438	0.03735272	-0.467391	0.8774377	0.1012604
5	200	1576222775	-125.05	119.865	-977.525	19.32825	-3.78626	10.74809	-184	-440	438	0.03808124	-0.4668416	0.8778039	0.1003449
5	200	1576222775	-103.822	134.017	-959.103	17.77099	-3.709924	8.839695	-184	-438	438	0.03830208	-0.4664754	0.8780481	0.09982605
5	200	1576222775	-91.5	123.098	-972.157	19.14504	3.038168	7.78626	-184	-438	438	0.03944892	-0.4659871	0.8783532	0.09897152
5	200	1576222775	-86.132	103.822	-996.252	13.37405	3.954199	7.282443	-184	-436	440	0.03938542	-0.4657125	0.8785669	0.09839168
5	200	1576222775	-41.297	86.803	-1112.091	-17.74046	7.374046	-6.427481	-184	-436	440	0.0375453	-0.4656514	0.8789331	0.09610279
5	200	1576222775	-46.116	62.647	-1045.967	-32.44275	9.129771	-20.99237	-184	-436	439	0.03744118	-0.4661092	0.8786279	0.09671316
5	200	1576222775	-128.405	228.201	-872.788	-24.0916	7.29771	-23.0687	-184	-436	439	0.03707241	-0.4672689	0.8778954	0.09790338
5	200	1576222775	-150.609	155.184	-897.371	-13.83206	10.10687	-15.28244	-184	-438	439	0.03642771	-0.4678793	0.8775597	0.09823908
5	200	1576222775	-113.033	101.565	-925.553	-8.503817	14.9313	-9.709924	-184	-438	439	0.03565875	-0.4684592	0.8772546	0.09848323
5	200	1576222775	-134.139	129.015	-925.37	-3.877863	15.60305	-4.580153	-185	-439	440	0.03503482	-0.4687033	0.877163	0.09836116
5	200	1576222775	-103.395	176.717	-981.734	-13.61832	22.21374	10.35114	-185	-439	440	0.03424763	-0.4686728	0.877224	0.09823908
5	200	1576222775	-68.32	153.72	-932.568	-18.38168	21.35878	11.25191	-185	-440	439	0.03337144	-0.4683676	0.8774071	0.09836116
5	200	1576222775	-82.655	124.806	-964.227	-27.9542	17.55725	6.183206	-185	-440	439	0.03205688	-0.4680319	0.8775597	0.09903257
5	200	1576222775	-78.507	129.32	-991.799	-25.86259	21.9542	6.015267	-188	-441	439	0.03148752	-0.4679098	0.8775902	0.09952086
5	200	1576222775	-82.472	132.919	-923.235	-22.22901	20.82443	8.671756	-188	-441	439	0.02993188	-0.4676656	0.8777123	0.1000702
5	200	1576222775	-68.747	145.424	-956.419	-20.99237	14.33588	4.48855	-187	-442	436	0.02929179	-0.4675131	0.8777733	0.1004364
5	200	1576222775	-65.514	118.584	-956.175	-22.06107	14.61069	4.015267	-187	-442	436	0.02820538	-0.467391	0.8778039	0.1010468
5	200	1576222775	-73.322	123.342	-917.745	-22.9771	16.71756	4.229008	-190	-443	434	0.02722141	-0.4672994	0.8778344	0.101474
5	200	1576222775	-55.754	143.96	-961.177	-27.41985	16.68702	2.030534	-190	-443	434	0.02590768	-0.4672078	0.8778344	0.102237
5	200	1576222775	-65.697	158.234	-938.302	-23.48092	18.32061	3.847328	-191	-445	432	0.02568007	-0.4671773	0.8778039	0.1026948
5	200	1576222775	-82.899	138.043	-945.805	-18.76336	18.12214	7.862596	-191	-445	432	0.02385967	-0.4669942	0.8778954	0.1031831
5	200	1576222775	-81.496	130.174	-942.633	-14.94656	15.98473	8.641221	-191	-446	435	0.02374448	-0.4667806	0.877987	0.1033967
5	200	1576222775	-85.278	119.255	-941.779	-13.83206	10.21374	7.664122	-191	-446	435	0.02295831	-0.4664144	0.8781702	0.1036714
5	200	1576222775	-75.823	146.156	-963.007	-18.30534	6.030534	3.374046	-192	-448	434	0.02282421	-0.4662313	0.8782312	0.1040071
5	200	1576222775	-77.226	149.816	-911.096	-14.0916	2.045802	-0.610687	-192	-448	434	0.02166258	-0.4662008	0.8782007	0.104648
5	200	1576222775	-91.866	160.613	-899.14	-13.77099	-2.839695	-4.351145	-193	-449	434	0.02141073	-0.4662313	0.8781396	0.1050752
5	200	1576222775	-95.404	195.871	-919.331	-10.50382	-4.229008	-9.282443	-193	-449	434	0.02241578	-0.4665059	0.8778954	0.1056856
5	200	1576222775	-129.381	193.126	-905.118	-7.496183	-2.320611	-7.480916	-192	-449	433	0.02250203	-0.4667196	0.8777428	0.1059908
5	200	1576222775	-116.205	172.02	-953.369	-3.648855	3.801527	-7.129771	-192	-449	433	0.02188295	-0.4669942	0.8775902	0.1061739
5	200	1576222775	-89.609	180.133	-978.257	-8.152672	11.03817	-7.572519	-193	-449	434	0.02141351	-0.4672384	0.8774682	0.1062044
5	200	1576222775	-69.052	148.657	-1009.367	-14.45802	17.05343	-8.854961	-192	-450	434	0.02089364	-0.4676351	0.8772545	0.1063265
5	200	1576222775	-50.142	128.771	-987.834	-20.54962	17.78626	-9.725191	-192	-450	434	0.01979046	-0.4679708	0.8770714	0.1065706
5	200	1576222775	-40.687	131.882	-965.325	-25.57252	15.74046	-12.58015	-193	-451	433	0.0193257	-0.4685507	0.8767052	0.10712
5	200	1576222775	-47.702	129.015	-941.779	-24.67176	11.61832	-13.63359	-193	-451	433	0.01974674	-0.4689779	0.8764001	0.1076693
5	200	1576222775	-52.582	146.217	-940.925	-20.22901	6.259542	-14.10687	-194	-453	432	0.01912418	-0.4696188	0.8759727	0.1084628
5	200	1576222775	-61.427	136.823	-903.837	-13.66412	4.442748	-15.12977	-194	-453	432	0.01817823	-0.4700766	0.8756981	0.1088595
5	200	1576222775	-72.712	162.931	-911.035	-11.69466	6.259542	-14.58015	-193	-453	432	0.01751868	-0.470748	0.8753014	0.1092563
5	200	1576222775	-77.836	159.576	-910.059	-7.343512	7.541985	-12.82443	-193	-453	432	0.01808949	-0.4711447	0.8750572	0.1094089
5	200	1576222775	-92.964	168.665	-979.904	-9.160305	8.076336	-6.763359	-194	-454	432	0.01695152	-0.471633	0.8748131	0.1094394
5	200	1576222775	-123.525	172.752	-975.451	-12.70229	4.48855	-2.427481	-194	-454	432	0.01689869	-0.4717551	0.8747215	0.109653
5	200	1576222775	-121.146	139.69	-975.451	-15.81679	-2.396947	-0.5038168	-192	-455	431	0.01641017	-0.4717856	0.87463	0.1103244
5	200	1576222775	-114.863	131.577	-939.217	-15.49618	-4.045802	-1.221374	-192	-455	431	0.01703045	-0.4717551	0.8745689	0.1108432
5	200	1576222775	-126.88	156.526	-907.192	-12.83969	-0.2137405	-1.465649	-193	-456	430	0.0167	-0.4717856	0.8744774	0.1114841
5	200	1576222775	-111.691	172.081	-911.279	-12.51908	6.335878	0.7480916	-193	-456	430	0.01625324	-0.4717856	0.8744469	0.1117893
5	200	1576222775	-99.796	158.478	-899.689	-9.145039	12.1374	2.625954	-192	-457	430	0.01720109	-0.4716941	0.8744469	0.1120334
5	200	1576222775	-104.249	164.456	-912.865	-6.045802	11.41985	2.351145	-192	-457	430	0.01712294	-0.471633	0.8744774	0.112064
5	200	1576222775	-85.4	165.554	-940.071	-5.221374	7.587786	1.312977	-193	-458	430	0.01501614	-0.471511	0.874691	0.1112095
5	200	1576222775	-87.474	140.849	-924.272	-2.412214	3.832061	1.587786	-193	-458	430	0.01332525	-0.4714805	0.8749962	0.1091342
5	200	1576222775	-82.106	150.67	-913.231	3.725191	-2.366412	-0.8549618	-193	-457	429	0.01140166	-0.4714194	0.8753014	0.1071505
5	200	1576222775	-93.025	153.232	-948.245	3.251908	-1.832061	-0.9465649	-193	-457	429	0.01359975	-0.4713889	0.8753014	0.1070284
5	200	1576222775	-93.635	150.914	-960.567	-2.671756	4.290076	0.7022901	-193	-457	430	0.01281215	-0.4713584	0.8756065	0.1047395
5	200	1576222775	-87.474	149.633	-969.351	-3.419847	7.450382	-0.2137405	-193	-457	430	0.01033497	-0.4713889	0.8757896	0.1033357
5	200	1576222775	-104.432	178.547	-937.326	-0.5801527	8.870229	0.1832061	-194	-456	430	0.01175937	-0.4713889	0.8757896	0.1031831
5	200	1576222775	-107.97	178.486	-945.439	1.480916	7.114504	0.9923664	-194	-456	430	0.009756465	-0.4713279	0.8758507	0.1031526
5	200	1576222775	-78.202	172.203	-955.687	2.564886	5.740458	-0.1832061	-194	-457	430	0.009013386	-0.4711752	0.8760337	0.1023591
5	200	1576222775	-85.156	167.567	-939.156	1.465649	5.435114	-1.19084	-194	-457	430	0.009956029	-0.4710837	0.8761864	0.1013825
5	200	1576222775	-62.403	170.495	-960.75	0.2290076	6.061069	-1.267176	-194	-457	429	0.004949496	-0.4709921	0.8764916	0.09952086
5	200	1576222775	-83.021	162.748	-944.951	-0.5038168	7.053435	-1.206107	-194	-457	429	0.008206902	-0.4709616	0.8765526	0.09891049
5	200	1576222775	-74.542	154.33	-959.469	-1.206107	7.557252	-0.6412214	-194	-456	430	0.007254716	-0.4709921	0.8766747	0.09775078
5	200	1576222775	-76.494	151.402	-962.946	-2.091603	6.045802	-0.9923664	-194	-456	430	0.007588022	0.4709921	-0.8768273	-0.09634694
5	200	1576222775	-71.614	139.202	-959.164	-0.4122137	5.877862	-1.068702	-194	-456	429	0.004580484	0.4710837	-0.8770409	-0.09411909
5	200	1576222775	-77.226	149.145	-961.421	0.3358779	5.770992	-0.7175573	-194	-456	429	0.006995385	0.4710837	-0.8771325	-0.09311197
5	200	1576222775	-92.72	152.317	-940.559	1.984733	6.610687	0.7328244	-194	-457	431	0.004612901	0.4710837	-0.8771935	-0.09268472
5	200	1576222775	-74.176	146.644	-965.081	2.656489	7.282443	1.038168	-194	-457	431	0.006436243	0.4710532	-0.8772851	-0.09186071
5	200	1576222775	-78.69	158.6	-954.528	2.122137	7.648855	0.4122137	-193	-456	430	0.006195595	0.4709616	-0.8774377	-0.09088412
5	200	1576222775	-73.078	156.709	-951.173	2.687023	7.938931	0.1374046	-193	-456	430	0.004746636	0.4709311	-0.8775292	-0.09024324
5	200	1576222775	-59.17	160.674	-963.922	3.419847	7.541985	0.09160306	-195	-455	430	0.007978582	0.4709006	-0.8775597	-0.08987701
5	200	1576222775	-65.88	164.029	-953.979	2.824428	6.793893	0.03053435	-195	-455	430	0.00696122	0.4709006	-0.8775903	-0.08966339
5	200	1576222775	-70.76	164.334	-932.385	2.076336	6.091603	-0.610687	-195	-456	430	0.009379577	0.4707785	-0.8776208	-0.08978546
5	200	1576222775	-63.989	165.554	-953.491	1.908397	6.030534	-1.007634	-195	-456	430	0.009923047	0.4707175	-0.8776818	-0.08944975
5	200	1576222775	-75.884	160.857	-931.653	1.648855	6.137404	-1.282443	-194	-455	431	0.01109699	0.4706565	-0.8776818	-0.08963286
5	200	1576222775	-75.213	163.724	-949.587	0.961832	5.832061	-1.633588	-194	-455	431	0.009562088	0.4706565	-0.8777123	-0.08951079
5	200	1576222775	-79.666	156.343	-952.393	-0.3053435	6.091603	-1.465649	-196	-454	430	0.01146682	0.470687	-0.8776513	-0.08972442
5	200	1576222775	-79.361	149.938	-952.027	-0.3816794	6.793893	-1.389313	-196	-454	430	0.00921934	0.470748	-0.8776513	-0.08966338
5	200	1576222775	-89.548	155.916	-939.766	-0.7328244	7.267176	-1.374046	-195	-454	431	0.008617853	0.4708396	-0.8776208	-0.08954131
5	200	1576222775	-87.352	150.304	-937.387	-1.083969	7.435114	-1.40458	-195	-454	431	0.01041826	0.4709006	-0.8775903	-0.08932769
5	200	1576222775	-69.357	148.901	-949.831	-1.206107	7.129771	-2.030534	-196	-454	431	0.01071441	0.4709921	-0.8775902	-0.08880886
5	200	1576222775	-79.239	147.681	-939.095	-1.114504	6.396946	-2.137405	-195	-454	431	0.009474418	0.4710532	-0.8775902	-0.08862575
5	200	1576222775	-85.339	151.951	-942.816	-0.3053435	5.801527	-1.40458	-195	-454	431	0.007650605	0.4712058	-0.8775292	-0.08859523
5	200	1576222775	-84.912	158.356	-939.339	0.04580153	5.51145	-1.633588	-196	-454	430	0.009814331	0.4712058	-0.8775292	-0.0883816
5	200	1576222775	-81.435	147.742	-952.698	0.5038168	5.51145	-2.061069	-196	-454	430	0.0108361	0.4712974	-0.8774987	-0.08807642
5	200	1576222775	-76.799	155.367	-955.87	0.6564885	5.679389	-1.847328	-196	-454	431	0.009586989	0.4713584	-0.8774682	-0.08819849
5	200	1576222775	-87.108	156.526	-948.611	0.9465649	6.580153	-1.816794	-196	-454	431	0.009085837	0.4714194	-0.8774377	-0.08822901
5	200	1576222775	-76.982	156.465	-945.134	0.9007633	6.549618	-1.694656	-196	-454	430	0.008034416	0.4714499	-0.8774377	-0.08816797
5	200	1576222775	-88.694	157.624	-955.016	1.435115	7.145038	-1.832061	-196	-454	430	0.01066422	0.471511	-0.8773461	-0.08847316
5	200	1576222775	-84.851	158.966	-953.979	1.374046	6.717557	-1.755725	-196	-454	430	0.008789063	0.471572	-0.8773156	-0.08865627
5	200	1576222775	-72.529	170.556	-947.147	1.29771	6.59542	-1.984733	-196	-454	430	0.009596311	0.471572	-0.8772545	-0.08917508
5	200	1576222775	-83.631	165.798	-924.272	1.618321	6.442748	-1.89313	-195	-453	432	0.008322295	0.471572	-0.877224	-0.08960234
5	200	1576222775	-67.649	168.665	-969.168	0.6412214	6.167939	-1.618321	-195	-453	432	0.01045253	0.4716025	-0.877163	-0.08981597
5	200	1576222776	-75.518	174.46	-949.221	0.07633588	6.122138	-1.664122	-196	-452	431	0.009701326	0.471572	-0.877163	-0.09006012
5	200	1576222776	-72.285	160.125	-957.578	-1.19084	6.366412	-1.480916	-196	-452	431	0.01132823	0.4716025	-0.877102	-0.09030427
5	200	1576222776	-67.039	157.197	-937.814	-1.709924	6.70229	-1.374046	-196	-453	431	0.01038387	0.4716025	-0.8771325	-0.09012116
5	200	1576222776	-70.089	157.136	-925.187	-1.29771	6.870229	-1.267176	-196	-453	431	0.01051507	0.471633	-0.877102	-0.09024324
5	200	1576222776	-69.906	159.942	-925.858	-1.053435	7.129771	-1.496183	-197	-452	431	0.01045538	0.4716636	-0.877102	-0.09009064
5	200	1576222776	-76.616	157.014	-938.729	0.8091603	6.167939	-1.312977	-197	-452	431	0.01248941	0.4716941	-0.8770714	-0.08996857
5	200	1576222776	-61.427	158.478	-969.107	1.587786	5.755725	-1.29771	-197	-454	429	0.01089644	0.4717246	-0.8771325	-0.08941923
5	200	1576222776	-77.165	161.65	-958.371	0.8091603	4.229008	-1.465649	-197	-454	429	0.01227277	0.4717551	-0.877163	-0.08877835
5	200	1576222776	-73.688	146.949	-943.121	-0.3358779	3.40458	-1.923664	-197	-454	430	0.01038961	0.4718467	-0.8771935	-0.08822901
5	200	1576222776	-65.27	145.18	-967.948	-1.572519	3.251908	-2.259542	-197	-454	430	0.01180238	0.4719382	-0.877224	-0.08725242
5	200	1576222776	-76.982	141.52	-931.043	-1.862595	4.870229	-2.21374	-197	-453	432	0.01198778	0.4720298	-0.8771935	-0.08703879
5	200	1576222776	-82.838	151.219	-921.71	-1.526718	5.29771	-2.137405	-197	-453	432	0.008950343	0.4721824	-0.8771325	-0.08719138
5	200	1576222776	-85.034	162.199	-944.829	-0.870229	5.435114	-2.274809	-197	-453	430	0.01090738	0.4722434	-0.8770409	-0.08755761
5	200	1576222776	-67.954	161.528	-958.493	-0.6259542	5.419847	-2.381679	-197	-453	430	0.01004543	0.4722739	-0.8770104	-0.08780175
5	200	1576222776	-66.978	158.356	-958.92	-1.160305	5.053435	-1.770992	-197	-453	431	0.01020438	0.4723045	-0.8769799	-0.08792382
5	200	1576222776	-77.226	155.489	-957.944	-1.725191	5.236641	-1.78626	-197	-453	431	0.01126227	0.4723655	-0.8769494	-0.08777124
5	200	1576222776	-62.586	153.537	-955.321	-2.122137	5.496183	-1.679389	-198	-453	431	0.01217035	0.4723655	-0.8769799	-0.08734398
5	200	1576222776	-52.277	142.679	-947.147	-2.030534	5.648855	-1.068702	-198	-453	431	0.01222411	0.472396	-0.8770714	-0.08624531
5	200	1576222776	-52.216	134.566	-949.831	-1.374046	6.061069	-0.6870229	-197	-452	432	0.01244878	0.4724265	-0.8771325	-0.08542131
5	200	1576222776	-59.719	144.021	-939.949	-0.9160305	5.435114	-0.3816794	-197	-452	432	0.0126577	0.4724265	-0.877224	-0.08444472
5	200	1576222776	-67.588	143.289	-926.041	-0.4732825	4.59542	-0.1832061	-198	-454	431	0.01277721	0.4724265	-0.8772545	-0.08410902
5	200	1576222776	-61.671	143.838	-969.29	0.1068702	3.51145	-0.4580153	-198	-453	432	0.01356245	0.4724265	-0.8773156	-0.08334605
5	200	1576222776	-68.198	151.585	-962.397	-0.2290076	3.541985	-0.4122137	-198	-453	432	0.01298773	0.4724265	-0.8773156	-0.08343761
5	200	1576222776	-73.444	158.234	-946.781	-0.04580153	4.38168	-1.19084	-198	-453	431	0.01163709	0.4724265	-0.8772851	-0.08395642
5	200	1576222776	-77.897	157.502	-954.223	0.04580153	4.519084	-0.8854962	-198	-453	431	0.01277721	0.4724265	-0.8772545	-0.08410902
5	200	1576222776	-76.555	153.598	-948.611	0	5.603054	-1.29771	-198	-453	431	0.0117695	0.4724571	-0.8771935	-0.08471938
5	200	1576222776	-64.477	153.72	-971.791	0.351145	6.030534	-1.480916	-198	-453	431	0.0112702	0.4724876	-0.877163	-0.08493301
5	200	1576222776	-84.424	155.062	-926.285	1.053435	5.938931	-1.206107	-197	-452	432	0.01121719	0.4725486	-0.8770714	-0.08554338
5	200	1576222776	-77.409	158.051	-942.999	1.709924	5.89313	-1.282443	-197	-452	432	0.01161145	0.4725791	-0.8770409	-0.08563494
5	200	1576222776	-64.782	157.746	-972.401	1.938931	6.030534	-2.030534	-198	-452	431	0.01278188	0.4726096	-0.8770409	-0.08529923
5	200	1576222776	-70.211	151.219	-961.482	1.496183	6.229008	-2.274809	-198	-452	431	0.01198032	0.4726707	-0.8770104	-0.08539079
5	200	1576222776	-68.93	161.772	-940.132	1.221374	6.015267	-2.687023	-198	-452	431	0.0125061	0.4727317	-0.8769494	-0.08560442
5	200	1576222776	-71.797	161.406	-928.359	1.053435	6.015267	-2.80916	-198	-452	431	0.01330286	0.4727622	-0.8768883	-0.08594012
5	200	1576222776	-66.612	164.212	-931.47	1.801527	6.38168	-2.534351	-197	-452	432	0.01360632	0.4728233	-0.8767968	-0.08648945
5	200	1576222776	-77.531	165.737	-937.326	2.045802	6.21374	-2.916031	-197	-452	432	0.01316323	0.4728538	-0.8767358	-0.08700828
5	200	1576222776	-71.126	166.957	-945.622	1.343511	5.099236	-2.70229	-198	-451	433	0.01186031	0.4729453	-0.8766442	-0.08761864
5	200	1576222776	-61.976	165.981	-972.401	-0.1526718	4.839694	-2.885496	-198	-451	433	0.01306324	0.4729759	-0.8766137	-0.08758813
5	200	1576222776	-75.091	162.443	-938.607	-2.366412	4.931298	-3.022901	-198	-451	432	0.01400567	0.4730673	-0.8764915	-0.08816797
5	200	1576222776	-71.553	165.188	-958.31	-3.251908	5.694656	-2.793893	-198	-451	432	0.01304954	0.4731284	-0.8764611	-0.08829005
5	200	1576222776	-73.871	154.33	-950.258	-3.740458	6.442748	-3.022901	-198	-451	430	0.01391602	0.4732505	-0.8763695	-0.08841212
5	200	1576222776	-78.629	150.243	-950.441	-4.351145	6.732824	-2.961832	-198	-451	430	0.01292332	0.4734031	-0.8763085	-0.08835109
5	200	1576222776	-73.871	149.877	-941.901	-4.824428	7.358778	-2.885496	-198	-452	432	0.01229945	0.4735557	-0.876278	-0.08792382
5	200	1576222776	-78.934	142.618	-951.539	-4.564886	7.755725	-2.687023	-198	-452	432	0.01272111	0.4737083	-0.8762475	-0.08734398
5	200	1576222776	-60.512	137.982	-963.678	-4.427481	7.923664	-3.099237	-198	-452	431	0.01055749	0.4739219	-0.8763085	-0.08584857
5	200	1576222776	-69.967	134.2	-962.641	-4.320611	7.770992	-3.175573	-198	-452	431	0.01190545	0.474044	-0.8763085	-0.08499405
5	200	1576222776	-50.02	127.124	-972.096	-3.862595	7.526718	-2.70229	-198	-452	431	0.01139643	0.4742576	-0.8763695	-0.08322398
5	200	1576222776	-51.118	120.353	-976.122	-3.816794	7.725191	-2.625954	-198	-452	431	0.01295096	0.4743492	-0.8764306	-0.08182012
5	200	1576222776	-56.913	121.756	-956.053	-2.59542	7.51145	-2.259542	-199	-451	431	0.01160374	0.4745323	-0.8765221	-0.0799585
5	200	1576222776	-48.983	122.732	-959.53	-2.274809	7.435114	-1.954198	-199	-451	431	0.01258923	0.4746239	-0.8765832	-0.07858516
5	200	1576222776	-55.51	121.573	-955.26	-0.8549618	5.832061	-1.938931	-200	-453	432	0.01199523	0.4747154	-0.8766747	-0.07708976
5	200	1576222776	-56.303	119.499	-961.787	-0.4274809	5.343512	-2.122137	-200	-453	432	0.01118793	0.474807	-0.8767052	-0.07629628
5	200	1576222776	-60.695	134.2	-956.907	0.3206107	5.328244	-1.694656	-199	-453	431	0.01384086	0.4748375	-0.8766747	-0.0760216
5	200	1576222776	-66.246	138.47	-952.759	0.4427481	5.099236	-1.374046	-199	-453	431	0.01233333	0.4748985	-0.8766747	-0.07589953
5	200	1576222776	-65.026	140.178	-959.591	0.6717557	5.526718	-1.022901	-199	-453	431	0.01120656	0.474929	-0.8766442	-0.07623523
5	200	1576222776	-68.747	139.324	-958.432	1.236641	5.221374	-0.9007633	-199	-453	431	0.01175684	0.4749596	-0.8765832	-0.0766625
5	200	1576222776	-76.738	146.705	-952.881	1.725191	4.931298	-1.114504	-199	-452	431	0.01214339	0.4749901	-0.8764916	-0.07745598
5	200	1576222776	-75.579	149.45	-952.698	2.122137	4.671756	-1.083969	-199	-452	431	0.01137025	0.4750206	-0.8764611	-0.07773065
5	200	1576222776	-77.714	147.071	-953.796	1.923664	4.534351	-1.053435	-199	-452	431	0.01230914	0.4750206	-0.8763695	-0.07861568
5	200	1576222776	-67.039	147.254	-970.571	1.541985	4.473282	-1.083969	-199	-452	431	0.01042112	0.4750511	-0.876339	-0.07904294
5	200	1576222776	-79.788	148.047	-939.583	0.610687	4.610687	-0.961832	-200	-452	431	0.009464976	0.4750816	-0.8762475	-0.07998902
5	200	1576222776	-74.847	147.254	-953.613	0.0610687	5.419847	-1.435115	-200	-452	431	0.009180467	0.4750816	-0.8762169	-0.08035523
5	200	1576222776	-76.555	154.818	-947.818	-0.3664122	6.122138	-1.175573	-200	-452	432	0.008833033	0.4750816	-0.8761559	-0.08105716
5	200	1576222776	-67.588	151.036	-947.879	-0.4427481	6.442748	-1.374046	-200	-452	432	0.01027423	0.4750816	-0.8760949	-0.08154546
5	200	1576222776	-68.93	157.319	-946.171	-1.465649	5.984733	-1.053435	-200	-451	431	0.009905011	0.4750511	-0.8760644	-0.08209479
5	200	1576222776	-75.274	155.367	-937.509	-1.419847	5.89313	-0.7328244	-200	-451	431	0.0117695	0.4750206	-0.8760033	-0.08267464
5	200	1576222776	-65.331	149.816	-954.894	-1.89313	5.78626	-0.5954198	-200	-451	431	0.01110773	0.4750206	-0.8760033	-0.0827662
5	200	1576222776	-72.102	150.731	-934.52	-2.59542	5.801527	-0.2442748	-200	-451	431	0.01149537	0.4749901	-0.8760033	-0.08288828
5	200	1576222776	-58.926	140.3	-956.541	-2.503817	6.335878	0.1068702	-200	-451	430	0.011365	0.4749901	-0.8760338	-0.08258308
5	200	1576222776	-60.268	144.265	-946.232	-2.305344	6.045802	0.09160306	-200	-451	430	0.01296936	0.4749596	-0.8760338	-0.08252205
5	200	1576222776	-68.442	140.544	-933.178	-1.832061	5.816794	0.5801527	-201	-452	431	0.01299691	0.474929	-0.8760644	-0.08236945
5	200	1576222776	-68.564	140.971	-935.435	-1.374046	5.770992	0.5801527	-200	-452	426	0.01206707	0.474929	-0.8760949	-0.08218635
5	200	1576222776	-72.285	142.74	-948.306	-0.09160306	5.633588	1.328244	-200	-452	426	0.01169074	0.474868	-0.8761559	-0.0819422
5	200	1576222776	-63.501	138.836	-950.624	0.4732825	5.969466	1.221374	-200	-451	431	0.01192546	0.4748375	-0.8761864	-0.08175909
